File: PhD Work/Raman Plotter_050524/Plot Data/UG Glasses/CaZn/JC_UG_CaZn4_5th_cut_bas_ther_vect_040624.csv
RamanShift,CaZn4
49.85,-2.70E-05
51.78,1.44E-05
53.71,6.10E-05
55.64,0.000218567
57.56,0.00039817
59.49,0.00052476
61.42,0.000541207
63.35,0.000493866
65.28,0.000495601
67.21,0.000604373
69.13,0.000754995
71.06,0.000917087
72.99,0.001033072
74.92,0.001052708
76.85,0.001042503
78.78,0.001079241
80.71,0.001165265
82.63,0.001265575
84.56,0.001266419
86.49,0.001252579
88.42,0.001333193
90.35,0.001514689
92.28,0.001620843
94.2,0.001618777
96.13,0.001546253
98.06,0.001478023
99.99,0.001466319
101.92,0.001552457
103.85,0.001713206
105.78,0.001833356
107.7,0.001834449
109.63,0.001738619
111.56,0.001615525
113.49,0.001683752
115.42,0.001754363
117.35,0.001775417
119.27,0.001783941
121.2,0.001796267
123.13,0.001852295
125.06,0.001861676
126.99,0.001793428
128.92,0.00176369
130.85,0.001736571
132.77,0.001693044
134.7,0.001749905
136.63,0.001819378
138.56,0.001837722
140.49,0.001807181
142.42,0.001731027
144.34,0.001644681
146.27,0.001563831
148.2,0.001565886
150.13,0.001634611
152.06,0.001690038
153.99,0.001698089
155.92,0.001669555
157.84,0.00161123
159.77,0.00157271
161.7,0.001573173
163.63,0.001562077
165.56,0.001507363
167.49,0.001519623
169.41,0.001578463
171.34,0.001582127
173.27,0.001525814
175.2,0.001489951
177.13,0.001484045
179.06,0.001464871
180.99,0.001486057
182.91,0.001527579
184.84,0.001516892
186.77,0.001495241
188.7,0.00151776
190.63,0.001505663
192.56,0.001468369
194.48,0.001494492
196.41,0.001482746
198.34,0.001451907
200.27,0.001505519
202.2,0.001562974
204.13,0.001587557
206.06,0.0016276
207.98,0.001679777
209.91,0.001640053
211.84,0.001709862
213.77,0.001752586
215.7,0.00175458
217.63,0.001813622
219.55,0.001869344
221.48,0.001890543
223.41,0.001888743
225.34,0.001878478
227.27,0.001911107
229.2,0.001972455
231.13,0.002038289
233.05,0.002128489
234.98,0.002130573
236.91,0.002090063
238.84,0.002117135
240.77,0.002179966
242.7,0.002273677
244.62,0.002371496
246.55,0.002412504
248.48,0.002446097
250.41,0.002472017
252.34,0.002508509
254.27,0.002568013
256.2,0.002647281
258.12,0.002616484
260.05,0.002623327
261.98,0.002761655
263.91,0.002820157
265.84,0.002761598
267.77,0.002735923
269.69,0.002772051
271.62,0.002799586
273.55,0.002890147
275.48,0.002932008
277.41,0.002839241
279.34,0.002753177
281.27,0.002851046
283.19,0.002997736
285.12,0.003060706
287.05,0.003035574
288.98,0.003138199
290.91,0.003186322
292.84,0.00315657
294.76,0.003196124
296.69,0.003319199
298.62,0.003442395
300.55,0.003586456
302.48,0.003591131
304.41,0.003581177
306.34,0.003515205
308.26,0.003594669
310.19,0.00376232
312.12,0.003859235
314.05,0.0039333
315.98,0.004080878
317.91,0.00414958
319.83,0.004123772
321.76,0.004143038
323.69,0.004285757
325.62,0.004385522
327.55,0.004484461
329.48,0.004570616
331.41,0.004717649
333.33,0.004896686
335.26,0.005094595
337.19,0.005241802
339.12,0.005465321
341.05,0.005821309
342.98,0.006037246
344.91,0.006111706
346.83,0.006282661
348.76,0.006643475
350.69,0.006970187
352.62,0.007204895
354.55,0.007402755
356.48,0.007714202
358.4,0.008074223
360.33,0.008371446
362.26,0.008567539
364.19,0.008784064
366.12,0.008942816
368.05,0.009268495
369.98,0.009562904
371.9,0.009813075
373.83,0.0100925
375.76,0.0103823
377.69,0.010639
379.62,0.0109276
381.55,0.011136
383.47,0.0111926
385.4,0.01133897
387.33,0.011737
389.26,0.0119629
391.19,0.0120383
393.12,0.0121956
395.05,0.01249061
396.97,0.0127752
398.9,0.0129166
400.83,0.0129088
402.76,0.0129793
404.69,0.0131696
406.62,0.0132728
408.54,0.0135731
410.47,0.0137025
412.4,0.0135478
414.33,0.0136297
416.26,0.0136367
418.19,0.0135813
420.12,0.0136842
422.04,0.0136965
423.97,0.0135575
425.9,0.0133899
427.83,0.0133518
429.76,0.0133266
431.69,0.0133148
433.61,0.0131957
435.54,0.0131337
437.47,0.0130759
439.4,0.0127832
441.33,0.0125673
443.26,0.0124236
445.19,0.0124204
447.11,0.0124711
449.04,0.012562
450.97,0.01241442
452.9,0.0122051
454.83,0.0120772
456.76,0.0119312
458.68,0.0116144
460.61,0.0114307
462.54,0.011443
464.47,0.011416
466.4,0.011427
468.33,0.011346
470.26,0.0110764
472.18,0.0109283
474.11,0.01089419
476.04,0.0108824
477.97,0.0109303
479.9,0.0109073
481.83,0.0109308
483.75,0.0109946
485.68,0.0109389
487.61,0.0107268
489.54,0.0103941
491.47,0.01010954
493.4,0.009940424
495.33,0.009835862
497.25,0.00966932
499.18,0.009383421
501.11,0.009226316
503.04,0.009217977
504.97,0.009035745
506.9,0.0088403
508.82,0.008759006
510.75,0.008698581
512.68,0.008482383
514.61,0.008326521
516.54,0.008094253
518.47,0.007848097
520.4,0.007497588
522.32,0.007037342
524.25,0.006686273
526.18,0.006350524
528.11,0.00589617
530.04,0.005714499
531.97,0.005701073
533.89,0.005617243
535.82,0.00534092
537.75,0.004814378
539.68,0.004365454
541.61,0.003900196
543.54,0.003736992
545.47,0.003708113
547.39,0.003357261
549.32,0.002889955
551.25,0.002243759
553.18,0.001734128
555.11,0.00163321
557.04,0.001568315
558.96,0.001420177
560.89,0.001237401
562.82,0.000690259
564.75,0.000180028
566.68,1.68E-06
568.61,4.14E-05
570.54,0.000123959
572.46,0.000143361
574.39,0.000239911
576.32,0.000259908
578.25,0.00031462
580.18,0.000374138
582.11,0.000621471
584.03,0.001037229
585.96,0.001258766
587.89,0.00132332
589.82,0.00159222
591.75,0.002246069
593.68,0.002588111
595.61,0.002883602
597.53,0.003271637
599.46,0.003603977
601.39,0.003829929
603.32,0.004130651
605.25,0.00461246
607.18,0.005351121
609.1,0.00563374
611.03,0.005941673
612.96,0.006428975
614.89,0.006756375
616.82,0.007480693
618.75,0.008116313
620.68,0.008657415
622.6,0.009002964
624.53,0.009284251
626.46,0.009668148
628.39,0.0103001
630.32,0.0107388
632.25,0.0111758
634.18,0.0120831
636.1,0.0127478
638.03,0.0130301
639.96,0.013521
641.89,0.0143515
643.82,0.014796
645.75,0.0151041
647.67,0.0157489
649.6,0.0167197
651.53,0.0171029
653.46,0.0175038
655.39,0.0179935
657.32,0.0188381
659.25,0.0194839
661.17,0.0199747
663.1,0.0204946
665.03,0.02117311
666.96,0.0216381
668.89,0.0220018
670.82,0.0223833
672.74,0.022772
674.67,0.0229947
676.6,0.0229859
678.53,0.0232684
680.46,0.0230304
682.39,0.0227261
684.32,0.0227998
686.24,0.0228087
688.17,0.0224554
690.1,0.0222401
692.03,0.0221315
693.96,0.0217869
695.89,0.0212037
697.81,0.0210775
699.74,0.0208564
701.67,0.0203731
703.6,0.0201305
705.53,0.0203596
707.46,0.0206066
709.39,0.0209392
711.31,0.0214141
713.24,0.02123645
715.17,0.0215846
717.1,0.0217525
719.03,0.02202402
720.96,0.0226178
722.88,0.0228871
724.81,0.0230541
726.74,0.0234187
728.67,0.0239247
730.6,0.0240956
732.53,0.0244777
734.46,0.0250025
736.38,0.025277
738.31,0.0256595
740.24,0.0264942
742.17,0.0270903
744.1,0.0277851
746.03,0.0284063
747.95,0.0287725
749.88,0.0287796
751.81,0.0290822
753.74,0.029362
755.67,0.0297647
757.6,0.0297852
759.53,0.0295421
761.45,0.0293395
763.38,0.0291293
765.31,0.0286701
767.24,0.02777977
769.17,0.0269144
771.1,0.0258871
773.02,0.02481515
774.95,0.0236923
776.88,0.0222661
778.81,0.0207169
780.74,0.0190373
782.67,0.0175502
784.6,0.0158624
786.52,0.0140551
788.45,0.0126855
790.38,0.0115518
792.31,0.01029468
794.24,0.009081555
796.17,0.007899803
798.09,0.00654795
800.02,0.005481761
801.95,0.004893956
803.88,0.004433991
805.81,0.004096474
807.74,0.003651086
809.67,0.003362177
811.59,0.003058272
813.52,0.002805857
815.45,0.002652299
817.38,0.002799854
819.31,0.003076188
821.24,0.003489177
823.16,0.003816631
825.09,0.003955781
827.02,0.003843723
828.95,0.003908597
830.88,0.004357501
832.81,0.004843367
834.74,0.005421619
836.66,0.00549872
838.59,0.005874238
840.52,0.006328345
842.45,0.006352831
844.38,0.006510236
846.31,0.006598386
848.23,0.006539354
850.16,0.006550435
852.09,0.007070665
854.02,0.006650658
855.95,0.006498446
857.88,0.006659125
859.81,0.006784909
861.73,0.006531265
863.66,0.006369636
865.59,0.006394574
867.52,0.00629667
869.45,0.005763029
871.38,0.005764567
873.3,0.005467112
875.23,0.005116761
877.16,0.004933112
879.09,0.004770506
881.02,0.004326784
882.95,0.003954565
884.88,0.003506154
886.8,0.003345309
888.73,0.003265541
890.66,0.002774218
892.59,0.002610041
894.52,0.002565258
896.45,0.002708656
898.37,0.002981397
900.3,0.003081292
902.23,0.003432455
904.16,0.00347321
906.09,0.003567675
908.02,0.004053237
909.95,0.00470268
911.87,0.005294032
913.8,0.006089209
915.73,0.006996962
917.66,0.007793136
919.59,0.008515586
921.52,0.009015655
923.45,0.009651307
925.37,0.0106745
927.3,0.0119625
929.23,0.0128472
931.16,0.0132148
933.09,0.0139012
935.02,0.0147341
936.94,0.0154596
938.87,0.0159812
940.8,0.01662557
942.73,0.0173534
944.66,0.017948
946.59,0.018368
948.52,0.0188143
950.44,0.0192626
952.37,0.0193879
954.3,0.0199377
956.23,0.0202776
958.16,0.0200947
960.09,0.0203461
962.01,0.0209938
963.94,0.0211658
965.87,0.0210573
967.8,0.0208318
969.73,0.0207464
971.66,0.02111085
973.59,0.0213431
975.51,0.0212495
977.44,0.0213654
979.37,0.02164178
981.3,0.0209821
983.23,0.0208609
985.16,0.0207727
987.08,0.0205478
989.01,0.0203133
990.94,0.0200946
992.87,0.0202002
994.8,0.0199112
996.73,0.0195001
998.66,0.0186984
1000.58,0.0180137
1002.51,0.01724777
1004.44,0.016704
1006.37,0.01615744
1008.3,0.0153811
1010.23,0.01426803
1012.15,0.0134656
1014.08,0.0126593
1016.01,0.0122638
1017.94,0.01193699
1019.87,0.0110768
1021.8,0.0104168
1023.73,0.009994203
1025.65,0.009390912
1027.58,0.008856458
1029.51,0.008615457
1031.44,0.007878812
1033.37,0.007219819
1035.3,0.006792618
1037.23,0.006716593
1039.15,0.006395211
1041.08,0.005653848
1043.01,0.005337652
1044.94,0.004828072
1046.87,0.004691813
1048.8,0.004334576
1050.72,0.003718066
1052.65,0.00379989
1054.58,0.003364317
1056.51,0.003121436
1058.44,0.002756755
1060.37,0.002194913
1062.3,0.001667907
1064.22,0.001325748
1066.15,0.001385205
1068.08,0.001275887
1070.01,0.000949533
1071.94,0.000725637
1073.87,0.000387281
1075.79,9.50E-05
1077.72,1.04E-06
1079.65,0.000144955
1081.58,0.00030874
1083.51,0.000406393
1085.44,0.000936254
1087.37,0.001055235
1089.29,0.00129057
1091.22,0.001816703
1093.15,0.002093678
1095.08,0.002013065
1097.01,0.001659972
1098.94,0.001626954
1100.86,0.001935776
1102.79,0.002118763
1104.72,0.002086868
1106.65,0.002182738
1108.58,0.003027976
1110.51,0.003837566
1112.44,0.004195579
1114.36,0.004317253
1116.29,0.005652262
1118.22,0.00669437
1120.15,0.007401659
1122.08,0.00804208
1124.01,0.008946113
1125.93,0.009753632
1127.86,0.01027264
1129.79,0.01051132
1131.72,0.0116312
1133.65,0.0127358
1135.58,0.0135301
1137.51,0.0146029
1139.43,0.0151598
1141.36,0.0166294
1143.29,0.0176544
1145.22,0.0188482
1147.15,0.0205102
1149.08,0.0214161
1151,0.022429
1152.93,0.02355
1154.86,0.024738
1156.79,0.0258478
1158.72,0.0268059
1160.65,0.0274023
1162.58,0.02829434
1164.5,0.0297565
1166.43,0.0306256
1168.36,0.0312453
1170.29,0.0320999
1172.22,0.0327253
1174.15,0.0340424
1176.07,0.0349289
1178,0.03570216
1179.93,0.0369268
1181.86,0.0374185
1183.79,0.0379229
1185.72,0.0379458
1187.65,0.0387545
1189.57,0.0395982
1191.5,0.0398296
1193.43,0.0403652
1195.36,0.0404686
1197.29,0.0413227
1199.22,0.0412321
1201.14,0.0412826
1203.07,0.04170536
1205,0.0420091
1206.93,0.0422811
1208.86,0.0426419
1210.79,0.04322489
1212.72,0.043622
1214.64,0.04334441
1216.57,0.0430881
1218.5,0.0426747
1220.43,0.0430286
1222.36,0.0431046
1224.29,0.0432254
1226.21,0.0439405
1228.14,0.0433664
1230.07,0.043927
1232,0.0439821
1233.93,0.0436413
1235.86,0.0435031
1237.79,0.0438067
1239.71,0.0434512
1241.64,0.043539
1243.57,0.043193
1245.5,0.043143
1247.43,0.0434136
1249.36,0.0435129
1251.28,0.04343922
1253.21,0.0435846
1255.14,0.0436495
1257.07,0.043425
1259,0.0433153
1260.93,0.0435075
1262.86,0.04377
1264.78,0.0441148
1266.71,0.0444144
1268.64,0.0445041
1270.57,0.0449226
1272.5,0.0455192
1274.43,0.0453162
1276.35,0.04527713
1278.28,0.0452737
1280.21,0.045282
1282.14,0.0459792
1284.07,0.0468101
1286,0.0468566
1287.93,0.0471541
1289.85,0.0473803
1291.78,0.0481236
1293.71,0.0489057
1295.64,0.0493172
1297.57,0.0496455
1299.5,0.0502531
1301.42,0.05059583
1303.35,0.0504665
1305.28,0.0506407
1307.21,0.0516807
1309.14,0.0520284
1311.07,0.0522548
1313,0.0532421
1314.92,0.0541341
1316.85,0.0541683
1318.78,0.0541409
1320.71,0.0543601
1322.64,0.0553722
1324.57,0.0555941
1326.5,0.0560527
1328.42,0.05673642
1330.35,0.0569116
1332.28,0.0566374
1334.21,0.0572133
1336.14,0.0580797
1338.07,0.05820753
1339.99,0.0581209
1341.92,0.0587661
1343.85,0.0592113
1345.78,0.0592778
1347.71,0.0587862
1349.64,0.0589408
1351.57,0.0591211
1353.49,0.0594418
1355.42,0.0594953
1357.35,0.0595106
1359.28,0.0600515
1361.21,0.0602087
1363.14,0.0604821
1365.06,0.06116847
1366.99,0.0614572
1368.92,0.0609435
1370.85,0.0604537
1372.78,0.0605988
1374.71,0.0607573
1376.64,0.0608507
1378.56,0.0611137
1380.49,0.0614434
1382.42,0.061328
1384.35,0.0610936
1386.28,0.060239
1388.21,0.060331
1390.13,0.0598939
1392.06,0.0595216
1393.99,0.0599702
1395.92,0.0596759
1397.85,0.0588345
1399.78,0.0586432
1401.71,0.0581437
1403.63,0.0572667
1405.56,0.0567892
1407.49,0.0569681
1409.42,0.05717425
1411.35,0.0566932
1413.28,0.0564534
1415.2,0.0556705
1417.13,0.0549664
1419.06,0.054735
1420.99,0.0545842
1422.92,0.05451443
1424.85,0.054171
1426.78,0.0532925
1428.7,0.0527117
1430.63,0.0521015
1432.56,0.0512138
1434.49,0.0497301
1436.42,0.050091
1438.35,0.04989966
1440.27,0.0490141
1442.2,0.04818129
1444.13,0.0479154
1446.06,0.0473837
1447.99,0.0466685
1449.92,0.0461322
1451.85,0.045608
1453.77,0.0448006
1455.7,0.0445105
1457.63,0.0442617
1459.56,0.0434192
1461.49,0.0432944
1463.42,0.0414136
1465.34,0.0407734
1467.27,0.0401028
1469.2,0.03951512
1471.13,0.0390535
1473.06,0.0380616
1474.99,0.0372092
1476.92,0.0364253
1478.84,0.0354661
1480.77,0.0340863
1482.7,0.0332204
1484.63,0.0326399
1486.56,0.0313345
1488.49,0.0301691
1490.41,0.0299133
1492.34,0.0285668
1494.27,0.0275649
1496.2,0.0266759
1498.13,0.0255794
1500.06,0.02472777
1501.99,0.0238583
1503.91,0.0229122
1505.84,0.02211
1507.77,0.0214966
1509.7,0.0205119
1511.63,0.01918367
1513.56,0.0181913
1515.48,0.0172846
1517.41,0.0170882
1519.34,0.0164891
1521.27,0.0155745
1523.2,0.0152097
1525.13,0.0150082
1527.06,0.0141163
1528.98,0.0135066
1530.91,0.0123231
1532.84,0.0119644
1534.77,0.01172523
1536.7,0.0109559
1538.63,0.0102294
1540.55,0.0100466
1542.48,0.00945276
1544.41,0.008552401
1546.34,0.008106508
1548.27,0.008193766
1550.2,0.008694506
1552.13,0.009472852
1554.05,0.0107758
1555.98,0.0120371
1557.91,0.009758982
1559.84,0.006084091
1561.77,0.004174595
1563.7,0.003977515
1565.62,0.004229583
1567.55,0.00401639
1569.48,0.003055411
1571.41,0.002964238
1573.34,0.003028907
1575.27,0.002108321
1577.2,0.001905393
1579.12,0.002298196
1581.05,0.0023779
1582.98,0.002127166
1584.91,0.001528565
1586.84,0.001528365
1588.77,0.000815971
1590.69,0.000862144
1592.62,0.001241928
1594.55,0.001066277
1596.48,0.00050767
1598.41,0.000218497
1599.37,9.67E-06