File: PhD Work/Raman Plotter_050524/Plot Data/UG Glasses/CaZn/JC_UG_CaZn1_5th_cut_bas_ther_vect_040624.csv
RamanShift,CaZn1
49.85,-5.08E-06
51.78,8.87E-05
53.71,0.000181741
55.64,0.000340715
57.56,0.000524973
59.49,0.000683483
61.42,0.00076005
63.35,0.000784582
65.28,0.000832847
67.21,0.000952885
69.13,0.001115332
71.06,0.001288569
72.99,0.001429285
74.92,0.001517104
76.85,0.001570498
78.78,0.001642083
80.71,0.001743223
82.63,0.001859228
84.56,0.001919586
86.49,0.001945832
88.42,0.002027996
90.35,0.002193697
92.28,0.002321388
94.2,0.002370339
96.13,0.002365683
98.06,0.002370695
99.99,0.002378296
101.92,0.002424253
103.85,0.00252953
105.78,0.002647527
107.7,0.002697265
109.63,0.002675734
111.56,0.002619974
113.49,0.002660714
115.42,0.002724094
117.35,0.002753327
119.27,0.002749697
121.2,0.00276536
123.13,0.00283785
125.06,0.002854215
126.99,0.002776765
128.92,0.002731888
130.85,0.002712049
132.77,0.002686758
134.7,0.00270728
136.63,0.002734645
138.56,0.002722081
140.49,0.00268323
142.42,0.002623366
144.34,0.002536796
146.27,0.002438729
148.2,0.002408668
150.13,0.002399052
152.06,0.002415311
153.99,0.002400458
155.92,0.002338297
157.84,0.002238197
159.77,0.002154036
161.7,0.002108123
163.63,0.002051115
165.56,0.001964108
167.49,0.001929751
169.41,0.001938663
171.34,0.001914673
173.27,0.001844404
175.2,0.00177821
177.13,0.00172153
179.06,0.001638222
180.99,0.001576238
182.91,0.001569138
184.84,0.001522731
186.77,0.001430283
188.7,0.00140722
190.63,0.001357497
192.56,0.001274052
194.48,0.001242074
196.41,0.001193605
198.34,0.001112101
200.27,0.001105722
202.2,0.001111208
204.13,0.001123832
206.06,0.001125055
207.98,0.001103879
209.91,0.001074476
211.84,0.001043762
213.77,0.001013451
215.7,0.00099057
217.63,0.000976672
219.55,0.000982859
221.48,0.000953805
223.41,0.000892274
225.34,0.000843043
227.27,0.000810463
229.2,0.000809357
231.13,0.000822877
233.05,0.000831847
234.98,0.000796917
236.91,0.000719697
238.84,0.000709913
240.77,0.00079303
242.7,0.000795406
244.62,0.000818836
246.55,0.000877853
248.48,0.000858157
250.41,0.000823031
252.34,0.000838202
254.27,0.000891931
256.2,0.000900994
258.12,0.00083365
260.05,0.000824631
261.98,0.00094383
263.91,0.00096739
265.84,0.000877442
267.77,0.000817914
269.69,0.000812109
271.62,0.000793522
273.55,0.000828327
275.48,0.000831316
277.41,0.000729064
279.34,0.000647102
281.27,0.000771838
283.19,0.000898122
285.12,0.000874171
287.05,0.000814143
288.98,0.000910446
290.91,0.00096408
292.84,0.000939094
294.76,0.000984264
296.69,0.001117027
298.62,0.001175123
300.55,0.001195239
302.48,0.001214561
304.41,0.001230075
306.34,0.001209639
308.26,0.001313885
310.19,0.001400537
312.12,0.001496837
314.05,0.001531303
315.98,0.001610208
317.91,0.001718871
319.83,0.00171068
321.76,0.001684916
323.69,0.001768199
325.62,0.001866949
327.55,0.001970495
329.48,0.002053272
331.41,0.002174322
333.33,0.002311828
335.26,0.002515549
337.19,0.002673927
339.12,0.002884658
341.05,0.003181862
342.98,0.003429194
344.91,0.003565687
346.83,0.003773567
348.76,0.004110585
350.69,0.004329146
352.62,0.004588892
354.55,0.004859702
356.48,0.005149252
358.4,0.005445097
360.33,0.005724816
362.26,0.005913487
364.19,0.006134105
366.12,0.006409456
368.05,0.00670665
369.98,0.00695616
371.9,0.007245657
373.83,0.007518903
375.76,0.007784647
377.69,0.008010016
379.62,0.008274869
381.55,0.008468288
383.47,0.008678662
385.4,0.008878933
387.33,0.009320772
389.26,0.009792134
391.19,0.00989628
393.12,0.0100701
395.05,0.01040908
396.97,0.0106888
398.9,0.0108777
400.83,0.0110032
402.76,0.0111593
404.69,0.0113569
406.62,0.0116167
408.54,0.01197422
410.47,0.0121234
412.4,0.0120257
414.33,0.0120435
416.26,0.01214951
418.19,0.0122198
420.12,0.0124116
422.04,0.0125013
423.97,0.0124187
425.9,0.0123278
427.83,0.01239345
429.76,0.0124558
431.69,0.01231625
433.61,0.0122348
435.54,0.0123394
437.47,0.0124177
439.4,0.01224399
441.33,0.0121349
443.26,0.0120203
445.19,0.0119685
447.11,0.0121164
449.04,0.0122482
450.97,0.0121944
452.9,0.0121462
454.83,0.0120878
456.76,0.0119145
458.68,0.0116258
460.61,0.0115951
462.54,0.0117978
464.47,0.01186968
466.4,0.0119015
468.33,0.0118083
470.26,0.0115492
472.18,0.0114512
474.11,0.0114749
476.04,0.01144
477.97,0.0113909
479.9,0.0113463
481.83,0.01149685
483.75,0.0116309
485.68,0.0115097
487.61,0.0112027
489.54,0.0110378
491.47,0.0107472
493.4,0.0105415
495.33,0.0105981
497.25,0.0104855
499.18,0.0102855
501.11,0.0102135
503.04,0.010223
504.97,0.01009
506.9,0.01000208
508.82,0.009887884
510.75,0.009747556
512.68,0.009611546
514.61,0.009484111
516.54,0.009340278
518.47,0.009217715
520.4,0.00889697
522.32,0.008438688
524.25,0.008086641
526.18,0.007865875
528.11,0.007541304
530.04,0.00730417
531.97,0.007501671
533.89,0.007403338
535.82,0.006895336
537.75,0.006430747
539.68,0.005963675
541.61,0.005545363
543.54,0.005342236
545.47,0.005109967
547.39,0.004689992
549.32,0.004236481
551.25,0.003516375
553.18,0.00287193
555.11,0.002801335
557.04,0.002609755
558.96,0.002274643
560.89,0.001992417
562.82,0.001435756
564.75,0.000890491
566.68,0.000590894
568.61,0.000495189
570.54,0.000441546
572.46,0.00018859
574.39,9.94E-05
576.32,0.000147177
578.25,0.00021236
580.18,1.97E-05
582.11,0.000119151
584.03,0.000435892
585.96,0.000659013
587.89,0.000804664
589.82,0.000941573
591.75,0.001369774
593.68,0.001542841
595.61,0.001787955
597.53,0.002207312
599.46,0.002647936
601.39,0.002846952
603.32,0.003150131
605.25,0.003721006
607.18,0.004278387
609.1,0.004648022
611.03,0.00502841
612.96,0.005540036
614.89,0.005971549
616.82,0.006699371
618.75,0.007279161
620.68,0.007828848
622.6,0.008240971
624.53,0.008420308
626.46,0.008891618
628.39,0.009658335
630.32,0.0101269
632.25,0.0104627
634.18,0.0111427
636.1,0.0114925
638.03,0.0116161
639.96,0.0120891
641.89,0.0125598
643.82,0.0128553
645.75,0.012926
647.67,0.0131203
649.6,0.0135416
651.53,0.0140706
653.46,0.0141257
655.39,0.0140467
657.32,0.0145366
659.25,0.0151794
661.17,0.0153675
663.1,0.0154817
665.03,0.0159247
666.96,0.0163472
668.89,0.01650902
670.82,0.0167068
672.74,0.0169997
674.67,0.017274
676.6,0.0174725
678.53,0.0178212
680.46,0.0180852
682.39,0.01822445
684.32,0.0184186
686.24,0.01850443
688.17,0.0185179
690.1,0.0186194
692.03,0.0187089
693.96,0.0185962
695.89,0.0184668
697.81,0.01872508
699.74,0.0189572
701.67,0.0188856
703.6,0.0188317
705.53,0.0192221
707.46,0.0198977
709.39,0.0205082
711.31,0.0210081
713.24,0.0214034
715.17,0.0218391
717.1,0.0223349
719.03,0.0229814
720.96,0.0237219
722.88,0.0243437
724.81,0.02495995
726.74,0.02548543
728.67,0.0259911
730.6,0.0265389
732.53,0.02731994
734.46,0.0279506
736.38,0.0284422
738.31,0.0292058
740.24,0.0302537
742.17,0.0311942
744.1,0.0319023
746.03,0.032564
747.95,0.0334111
749.88,0.0341179
751.81,0.034771
753.74,0.0351176
755.67,0.0357396
757.6,0.036176
759.53,0.0361948
761.45,0.036216
763.38,0.0361648
765.31,0.0358379
767.24,0.0351842
769.17,0.0341311
771.1,0.0328637
773.02,0.0314781
774.95,0.0300768
776.88,0.02845017
778.81,0.0263016
780.74,0.0239148
782.67,0.0218592
784.6,0.019726
786.52,0.0174279
788.45,0.0155194
790.38,0.0137219
792.31,0.0119566
794.24,0.01039857
796.17,0.008611877
798.09,0.00709591
800.02,0.005937937
801.95,0.005255337
803.88,0.004720018
805.81,0.004136877
807.74,0.003832697
809.67,0.003716719
811.59,0.003491564
813.52,0.003426294
815.45,0.003763038
817.38,0.004113115
819.31,0.004718682
821.24,0.005597246
823.16,0.006294361
825.09,0.006873426
827.02,0.007084428
828.95,0.007442469
830.88,0.008226136
832.81,0.009076093
834.74,0.009849488
836.66,0.0105961
838.59,0.0112652
840.52,0.0116996
842.45,0.01193661
844.38,0.012053
846.31,0.0123748
848.23,0.01257956
850.16,0.0127577
852.09,0.0133898
854.02,0.0135032
855.95,0.0136211
857.88,0.0136713
859.81,0.0137658
861.73,0.0138847
863.66,0.0138911
865.59,0.0140838
867.52,0.014314
869.45,0.0139787
871.38,0.01358
873.3,0.01335496
875.23,0.0133959
877.16,0.0131978
879.09,0.0126678
881.02,0.0121223
882.95,0.0115155
884.88,0.0110844
886.8,0.0106423
888.73,0.0102271
890.66,0.009939813
892.59,0.009773
894.52,0.009503804
896.45,0.009508363
898.37,0.009835578
900.3,0.0100198
902.23,0.0101707
904.16,0.0105449
906.09,0.0108566
908.02,0.0112861
909.95,0.0119596
911.87,0.012896
913.8,0.013846
915.73,0.0150969
917.66,0.016376
919.59,0.01748668
921.52,0.0186338
923.45,0.0199934
925.37,0.0215317
927.3,0.0231222
929.23,0.0244637
931.16,0.0258786
933.09,0.0270646
935.02,0.0280332
936.94,0.02923893
938.87,0.0307517
940.8,0.0320335
942.73,0.03316809
944.66,0.0342584
946.59,0.0353495
948.52,0.0365413
950.44,0.0374876
952.37,0.0382833
954.3,0.0392844
956.23,0.0400834
958.16,0.0403748
960.09,0.0409536
962.01,0.0416547
963.94,0.0418026
965.87,0.0420205
967.8,0.0422858
969.73,0.0423463
971.66,0.04282371
973.59,0.04296949
975.51,0.0431056
977.44,0.0432284
979.37,0.0430767
981.3,0.0428479
983.23,0.0426414
985.16,0.0423713
987.08,0.042013
989.01,0.0416099
990.94,0.0411611
992.87,0.040464
994.8,0.0398163
996.73,0.0388649
998.66,0.0370109
1000.58,0.0358133
1002.51,0.0348782
1004.44,0.0336597
1006.37,0.0320772
1008.3,0.0305113
1010.23,0.0289819
1012.15,0.0276025
1014.08,0.0261522
1016.01,0.025007
1017.94,0.0238412
1019.87,0.0221216
1021.8,0.0209029
1023.73,0.0198485
1025.65,0.0187887
1027.58,0.0176484
1029.51,0.0167194
1031.44,0.0155988
1033.37,0.014412
1035.3,0.0137425
1037.23,0.0131258
1039.15,0.0123325
1041.08,0.0114588
1043.01,0.0106065
1044.94,0.009544597
1046.87,0.009054518
1048.8,0.008500119
1050.72,0.007663673
1052.65,0.007041163
1054.58,0.006483314
1056.51,0.006021801
1058.44,0.005610363
1060.37,0.005102801
1062.3,0.004445994
1064.22,0.00406483
1066.15,0.003639764
1068.08,0.003413487
1070.01,0.003096169
1071.94,0.00280925
1073.87,0.002600816
1075.79,0.001885027
1077.72,0.001347651
1079.65,0.000952444
1081.58,0.000635983
1083.51,0.000775377
1085.44,0.000937012
1087.37,0.000650889
1089.29,0.000114412
1091.22,-1.08E-06
1093.15,0.000176743
1095.08,0.000349952
1097.01,0.000207019
1098.94,0.000129214
1100.86,0.000418921
1102.79,0.000555887
1104.72,0.000290995
1106.65,0.000196273
1108.58,0.000577469
1110.51,0.000988157
1112.44,0.001217126
1114.36,0.001157251
1116.29,0.001270335
1118.22,0.00205594
1120.15,0.002570038
1122.08,0.002827698
1124.01,0.003430357
1125.93,0.004058272
1127.86,0.004151107
1129.79,0.004442943
1131.72,0.004940772
1133.65,0.00575991
1135.58,0.006365603
1137.51,0.00665909
1139.43,0.007343877
1141.36,0.008140872
1143.29,0.009016207
1145.22,0.009849134
1147.15,0.0105178
1149.08,0.0113111
1151,0.0119682
1152.93,0.0126748
1154.86,0.0134368
1156.79,0.01418458
1158.72,0.0149296
1160.65,0.0155309
1162.58,0.0165349
1164.5,0.0174545
1166.43,0.01807664
1168.36,0.0185355
1170.29,0.0190021
1172.22,0.0199107
1174.15,0.0206324
1176.07,0.021321
1178,0.0218569
1179.93,0.0226769
1181.86,0.0233981
1183.79,0.0235318
1185.72,0.0238832
1187.65,0.0246353
1189.57,0.0252385
1191.5,0.0253706
1193.43,0.0257466
1195.36,0.026124
1197.29,0.0265211
1199.22,0.0267115
1201.14,0.0270865
1203.07,0.0273524
1205,0.0277486
1206.93,0.02844896
1208.86,0.0284465
1210.79,0.0289153
1212.72,0.0296717
1214.64,0.0297581
1216.57,0.029321
1218.5,0.0295196
1220.43,0.02992565
1222.36,0.030195
1224.29,0.0303522
1226.21,0.03062295
1228.14,0.03090755
1230.07,0.0311109
1232,0.0315305
1233.93,0.03166569
1235.86,0.0315784
1237.79,0.0318861
1239.71,0.0320092
1241.64,0.0320048
1243.57,0.03172414
1245.5,0.031976
1247.43,0.0324094
1249.36,0.03248246
1251.28,0.032536
1253.21,0.03300492
1255.14,0.0330142
1257.07,0.0328476
1259,0.0328758
1260.93,0.0330281
1262.86,0.0331089
1264.78,0.0334257
1266.71,0.03357292
1268.64,0.0337206
1270.57,0.0341063
1272.5,0.0344272
1274.43,0.0344841
1276.35,0.0346404
1278.28,0.0347973
1280.21,0.0345747
1282.14,0.0348053
1284.07,0.0354985
1286,0.0358789
1287.93,0.0359046
1289.85,0.036327
1291.78,0.0365084
1293.71,0.0369809
1295.64,0.03757705
1297.57,0.0375714
1299.5,0.0381026
1301.42,0.0385058
1303.35,0.0383649
1305.28,0.038401
1307.21,0.0391769
1309.14,0.0391868
1311.07,0.0391416
1313,0.0396679
1314.92,0.0403958
1316.85,0.041023
1318.78,0.0416593
1320.71,0.041666
1322.64,0.0422778
1324.57,0.0424246
1326.5,0.0426905
1328.42,0.0432997
1330.35,0.0438483
1332.28,0.044181
1334.21,0.0450074
1336.14,0.04577317
1338.07,0.04592714
1339.99,0.0460031
1341.92,0.0467604
1343.85,0.0470585
1345.78,0.0471368
1347.71,0.0479639
1349.64,0.0485939
1351.57,0.0491902
1353.49,0.0496733
1355.42,0.0498136
1357.35,0.0501556
1359.28,0.050506
1361.21,0.051103
1363.14,0.052122
1365.06,0.0527885
1366.99,0.0529202
1368.92,0.0531175
1370.85,0.0538916
1372.78,0.05414207
1374.71,0.0543859
1376.64,0.0546305
1378.56,0.0551102
1380.49,0.0558423
1382.42,0.05640719
1384.35,0.0564493
1386.28,0.0564098
1388.21,0.0568817
1390.13,0.0572801
1392.06,0.0575538
1393.99,0.0581488
1395.92,0.0585216
1397.85,0.0582219
1399.78,0.05851312
1401.71,0.05873005
1403.63,0.0581568
1405.56,0.0580642
1407.49,0.0589151
1409.42,0.05918611
1411.35,0.0593442
1413.28,0.0591988
1415.2,0.0587249
1417.13,0.058722
1419.06,0.0591312
1420.99,0.0592663
1422.92,0.0595164
1424.85,0.0590533
1426.78,0.0592034
1428.7,0.0593379
1430.63,0.059064
1432.56,0.0590672
1434.49,0.0588068
1436.42,0.0588633
1438.35,0.0587332
1440.27,0.05854726
1442.2,0.0583453
1444.13,0.0584628
1446.06,0.0582987
1447.99,0.0577099
1449.92,0.05765324
1451.85,0.0571317
1453.77,0.0572067
1455.7,0.0573219
1457.63,0.056709
1459.56,0.0564663
1461.49,0.0559842
1463.42,0.0553491
1465.34,0.0548703
1467.27,0.0545098
1469.2,0.0541798
1471.13,0.053608
1473.06,0.0528092
1474.99,0.0520233
1476.92,0.051162
1478.84,0.05058743
1480.77,0.0493402
1482.7,0.0482826
1484.63,0.0475456
1486.56,0.0462857
1488.49,0.0451758
1490.41,0.044086
1492.34,0.0428047
1494.27,0.0415268
1496.2,0.0401541
1498.13,0.0388504
1500.06,0.03770653
1501.99,0.03664084
1503.91,0.0354802
1505.84,0.0340429
1507.77,0.0326914
1509.7,0.0311443
1511.63,0.0296333
1513.56,0.028833
1515.48,0.0279962
1517.41,0.0264548
1519.34,0.0255273
1521.27,0.0244792
1523.2,0.0236877
1525.13,0.0230868
1527.06,0.0218602
1528.98,0.0204518
1530.91,0.0196475
1532.84,0.0191454
1534.77,0.0184801
1536.7,0.0174641
1538.63,0.0164531
1540.55,0.0155151
1542.48,0.0146765
1544.41,0.013604
1546.34,0.0127335
1548.27,0.0125212
1550.2,0.01214461
1552.13,0.0117065
1554.05,0.0123542
1555.98,0.0127707
1557.91,0.0111795
1559.84,0.00900153
1561.77,0.007702507
1563.7,0.007165049
1565.62,0.006704173
1567.55,0.006163164
1569.48,0.005917754
1571.41,0.004935399
1573.34,0.004221834
1575.27,0.004156493
1577.2,0.003712212
1579.12,0.003231117
1581.05,0.003022355
1582.98,0.002388017
1584.91,0.002389919
1586.84,0.001601397
1588.77,0.001237238
1590.69,0.000791669
1592.62,0.000853365
1594.55,0.000897384
1596.48,0.000225125
1598.41,9.78E-05
1599.37,-3.78E-05