File: PhD Work/Raman Plotter_050524/Plot Data/UG Glasses/CaZn/JC_UG_CaZn3_5th_cut_bas_ther_vect_040624.csv
RamanShift,CaZn3
49.85,-0.000250548
51.78,-0.000199801
53.71,-0.000158263
55.64,-5.32E-05
57.56,8.07E-05
59.49,0.000198342
61.42,0.000253616
63.35,0.000240007
65.28,0.000234374
67.21,0.000296493
69.13,0.000411556
71.06,0.000543864
72.99,0.000648639
74.92,0.0006981
76.85,0.000716986
78.78,0.000745568
80.71,0.000799917
82.63,0.0008761
84.56,0.000914179
86.49,0.000914813
88.42,0.000950832
90.35,0.001066933
92.28,0.001170498
94.2,0.001205845
96.13,0.001180947
98.06,0.001159092
99.99,0.001134268
101.92,0.001157218
103.85,0.001245044
105.78,0.001330957
107.7,0.001380788
109.63,0.001365478
111.56,0.001277898
113.49,0.001286863
115.42,0.001333373
117.35,0.001362239
119.27,0.001363196
121.2,0.001368025
123.13,0.001417527
125.06,0.001431574
126.99,0.001378376
128.92,0.001336129
130.85,0.001317332
132.77,0.001302901
134.7,0.001308593
136.63,0.001329735
138.56,0.001336176
140.49,0.001331033
142.42,0.001304665
144.34,0.00122759
146.27,0.001146996
148.2,0.001150002
150.13,0.001169806
152.06,0.001206093
153.99,0.001212601
155.92,0.001176631
157.84,0.001120483
159.77,0.001065674
161.7,0.001047
163.63,0.00104058
165.56,0.001007294
167.49,0.001001036
169.41,0.001024257
171.34,0.001033901
173.27,0.00099333
175.2,0.000958572
177.13,0.000938612
179.06,0.000903831
180.99,0.000885033
182.91,0.000905148
184.84,0.000898537
186.77,0.000875661
188.7,0.000904377
190.63,0.000896579
192.56,0.000852069
194.48,0.000845013
196.41,0.000834594
198.34,0.000789089
200.27,0.00080524
202.2,0.000854696
204.13,0.000907158
206.06,0.000929798
207.98,0.00092113
209.91,0.000939564
211.84,0.000956926
213.77,0.000980927
215.7,0.00101514
217.63,0.001049994
219.55,0.001071228
221.48,0.001079084
223.41,0.001086805
225.34,0.0010796
227.27,0.001078992
229.2,0.001114941
231.13,0.001175716
233.05,0.00121837
234.98,0.001232535
236.91,0.001197909
238.84,0.001202203
240.77,0.001296238
242.7,0.001350335
244.62,0.00141418
246.55,0.001485832
248.48,0.001516964
250.41,0.00152352
252.34,0.001564376
254.27,0.001645878
256.2,0.001710831
258.12,0.001681752
260.05,0.00169229
261.98,0.001819584
263.91,0.00187088
265.84,0.001838968
267.77,0.001820694
269.69,0.00183325
271.62,0.001856179
273.55,0.001897366
275.48,0.001904352
277.41,0.001838021
279.34,0.001799444
281.27,0.001928913
283.19,0.0020546
285.12,0.002056649
287.05,0.002040913
288.98,0.002110552
290.91,0.002171815
292.84,0.002203256
294.76,0.002270091
296.69,0.00238008
298.62,0.002439542
300.55,0.002483256
302.48,0.002508534
304.41,0.002543996
306.34,0.00255029
308.26,0.002655619
310.19,0.002762649
312.12,0.002847984
314.05,0.002898047
315.98,0.003005529
317.91,0.003126515
319.83,0.003144058
321.76,0.003140908
323.69,0.003231908
325.62,0.003367454
327.55,0.00350119
329.48,0.003605268
331.41,0.00373738
333.33,0.003887816
335.26,0.004076714
337.19,0.004242227
339.12,0.004466572
341.05,0.004772423
342.98,0.004999842
344.91,0.005148116
346.83,0.005355109
348.76,0.005666518
350.69,0.005953273
352.62,0.006231442
354.55,0.006485249
356.48,0.006770665
358.4,0.007089486
360.33,0.007417107
362.26,0.007624467
364.19,0.007825468
366.12,0.008166946
368.05,0.008438708
369.98,0.00867339
371.9,0.008999117
373.83,0.009283677
375.76,0.009547146
377.69,0.009796633
379.62,0.0100844
381.55,0.0102741
383.47,0.0105264
385.4,0.01073108
387.33,0.0110732
389.26,0.0114496
391.19,0.0115652
393.12,0.0117254
395.05,0.0120113
396.97,0.0122733
398.9,0.0124054
400.83,0.0124863
402.76,0.0126279
404.69,0.0128162
406.62,0.01295301
408.54,0.01323959
410.47,0.0133599
412.4,0.0132075
414.33,0.0132324
416.26,0.0132743
418.19,0.0132677
420.12,0.0133673
422.04,0.01338392
423.97,0.0132465
425.9,0.0130644
427.83,0.0130165
429.76,0.0130923
431.69,0.0129308
433.61,0.0127808
435.54,0.0127843
437.47,0.0127833
439.4,0.0125437
441.33,0.0123902
443.26,0.0122745
445.19,0.0122088
447.11,0.01221891
449.04,0.0121955
450.97,0.0120666
452.9,0.0119632
454.83,0.0118219
456.76,0.011602
458.68,0.0113665
460.61,0.01136913
462.54,0.0114914
464.47,0.0113868
466.4,0.0113772
468.33,0.0113296
470.26,0.0110721
472.18,0.0109576
474.11,0.0109449
476.04,0.0108911
477.97,0.0108383
479.9,0.0108057
481.83,0.0108821
483.75,0.0109193
485.68,0.0107759
487.61,0.0105603
489.54,0.0103506
491.47,0.010085
493.4,0.009887261
495.33,0.009843513
497.25,0.009751302
499.18,0.009553932
501.11,0.00939721
503.04,0.009279495
504.97,0.009144052
506.9,0.009004453
508.82,0.008802431
510.75,0.008609862
512.68,0.008489884
514.61,0.00831887
516.54,0.008096032
518.47,0.007896787
520.4,0.007621088
522.32,0.007181229
524.25,0.006872055
526.18,0.006658977
528.11,0.006348459
530.04,0.006105666
531.97,0.006103819
533.89,0.00594085
535.82,0.005547716
537.75,0.00514559
539.68,0.00469177
541.61,0.00433926
543.54,0.004147793
545.47,0.003895837
547.39,0.003544212
549.32,0.003150757
551.25,0.002570433
553.18,0.002062367
555.11,0.001978928
557.04,0.001795308
558.96,0.001510097
560.89,0.0012434
562.82,0.000783452
564.75,0.000420475
566.68,0.000257416
568.61,0.000229852
570.54,0.000204732
572.46,3.03E-05
574.39,3.40E-05
576.32,0.000147101
578.25,0.000269378
580.18,0.000230047
582.11,0.000334353
584.03,0.000709267
585.96,0.001000842
587.89,0.001132208
589.82,0.001357611
591.75,0.001822507
593.68,0.002075393
595.61,0.002338907
597.53,0.002719073
599.46,0.003136939
601.39,0.003402206
603.32,0.003765267
605.25,0.004314751
607.18,0.004789652
609.1,0.005156613
611.03,0.005585474
612.96,0.00609764
614.89,0.006471103
616.82,0.00708914
618.75,0.007589096
620.68,0.008014593
622.6,0.008364552
624.53,0.008793055
626.46,0.009236896
628.39,0.009858248
630.32,0.0103185
632.25,0.0107081
634.18,0.0114314
636.1,0.01194241
638.03,0.01228588
639.96,0.012882
641.89,0.013517
643.82,0.013983
645.75,0.0142749
647.67,0.0146891
649.6,0.0153074
651.53,0.0159875
653.46,0.0163028
655.39,0.0165877
657.32,0.0173277
659.25,0.0180598
661.17,0.0185062
663.1,0.0189033
665.03,0.0194673
666.96,0.0199524
668.89,0.0203777
670.82,0.0207158
672.74,0.0209421
674.67,0.021066
676.6,0.0212173
678.53,0.02139268
680.46,0.02145369
682.39,0.0214433
684.32,0.0214391
686.24,0.0211738
688.17,0.0209684
690.1,0.0207816
692.03,0.0205204
693.96,0.0201145
695.89,0.0197993
697.81,0.0196977
699.74,0.0195952
701.67,0.0192523
703.6,0.0188499
705.53,0.0190078
707.46,0.0193193
709.39,0.0195468
711.31,0.0197321
713.24,0.0198826
715.17,0.0200662
717.1,0.0203554
719.03,0.0206861
720.96,0.0210295
722.88,0.0215754
724.81,0.0220258
726.74,0.0223133
728.67,0.0225763
730.6,0.022985
732.53,0.02354091
734.46,0.02400304
736.38,0.0244299
738.31,0.0250246
740.24,0.0256944
742.17,0.0263792
744.1,0.0268368
746.03,0.0272969
747.95,0.0280031
749.88,0.0284458
751.81,0.02873717
753.74,0.0289451
755.67,0.0292852
757.6,0.0293632
759.53,0.0293671
761.45,0.0291632
763.38,0.02896181
765.31,0.0285975
767.24,0.0277496
769.17,0.0268285
771.1,0.025806
773.02,0.0246248
774.95,0.0233524
776.88,0.0219675
778.81,0.0204047
780.74,0.0186264
782.67,0.01697
784.6,0.0152299
786.52,0.0135151
788.45,0.0120301
790.38,0.0106667
792.31,0.009298708
794.24,0.008045582
796.17,0.00675979
798.09,0.00551144
800.02,0.004471361
801.95,0.003845577
803.88,0.003433123
805.81,0.002804334
807.74,0.002386015
809.67,0.002188524
811.59,0.001930513
813.52,0.00167939
815.45,0.001788247
817.38,0.001893398
819.31,0.002080386
821.24,0.002440056
823.16,0.002788787
825.09,0.003057496
827.02,0.003167475
828.95,0.00325627
830.88,0.003567578
832.81,0.004155757
834.74,0.004598283
836.66,0.005043186
838.59,0.005398098
840.52,0.005631176
842.45,0.005803388
844.38,0.005807589
846.31,0.00600328
848.23,0.00606127
850.16,0.006025419
852.09,0.006371264
854.02,0.006434904
855.95,0.006430958
857.88,0.006308938
859.81,0.006304292
861.73,0.006490822
863.66,0.006358289
865.59,0.006417381
867.52,0.0064215
869.45,0.0060382
871.38,0.005819012
873.3,0.005672523
875.23,0.00552053
877.16,0.005260262
879.09,0.004909619
881.02,0.004524081
882.95,0.004108062
884.88,0.003816868
886.8,0.003594779
888.73,0.003409296
890.66,0.00322742
892.59,0.003011062
894.52,0.002970173
896.45,0.003072648
898.37,0.003285987
900.3,0.003548544
902.23,0.003831696
904.16,0.004222763
906.09,0.004586643
908.02,0.005078894
909.95,0.005744491
911.87,0.006447593
913.8,0.007252536
915.73,0.008282931
917.66,0.009293976
919.59,0.0100826
921.52,0.010766
923.45,0.0117711
925.37,0.0128758
927.3,0.0138662
929.23,0.0146911
931.16,0.0157562
933.09,0.0164538
935.02,0.0169829
936.94,0.0177524
938.87,0.0187592
940.8,0.0194859
942.73,0.020165
944.66,0.020796
946.59,0.0214351
948.52,0.0221439
950.44,0.0226238
952.37,0.023075
954.3,0.0237353
956.23,0.0241233
958.16,0.0241379
960.09,0.0244498
962.01,0.02471548
963.94,0.0247043
965.87,0.02479255
967.8,0.02496
969.73,0.0250433
971.66,0.0252645
973.59,0.0253162
975.51,0.0252664
977.44,0.0251948
979.37,0.0250957
981.3,0.025044
983.23,0.0250884
985.16,0.0250141
987.08,0.0248143
989.01,0.0245755
990.94,0.0243406
992.87,0.0241041
994.8,0.0237405
996.73,0.0231448
998.66,0.02210135
1000.58,0.0214482
1002.51,0.0208084
1004.44,0.0202313
1006.37,0.01929101
1008.3,0.0182458
1010.23,0.0173512
1012.15,0.0166135
1014.08,0.0157995
1016.01,0.0151831
1017.94,0.0144903
1019.87,0.0133713
1021.8,0.0126646
1023.73,0.0119883
1025.65,0.0113708
1027.58,0.0107445
1029.51,0.01021193
1031.44,0.009573651
1033.37,0.008972184
1035.3,0.00856866
1037.23,0.008203266
1039.15,0.007766623
1041.08,0.007246754
1043.01,0.006689475
1044.94,0.006222308
1046.87,0.005909964
1048.8,0.005473328
1050.72,0.004940846
1052.65,0.004528832
1054.58,0.00405002
1056.51,0.003721976
1058.44,0.003557556
1060.37,0.00327971
1062.3,0.002739321
1064.22,0.002487671
1066.15,0.002216746
1068.08,0.002028009
1070.01,0.001772349
1071.94,0.001527322
1073.87,0.00137722
1075.79,0.000870621
1077.72,0.000669616
1079.65,0.000540179
1081.58,0.000349268
1083.51,0.00033373
1085.44,0.000482565
1087.37,0.000405768
1089.29,9.58E-05
1091.22,6.65E-05
1093.15,0.000381416
1095.08,0.000728409
1097.01,0.000792476
1098.94,0.000881415
1100.86,0.001212748
1102.79,0.001576392
1104.72,0.001785563
1106.65,0.001951725
1108.58,0.00257565
1110.51,0.003133097
1112.44,0.003585847
1114.36,0.003971097
1116.29,0.004439924
1118.22,0.005379232
1120.15,0.006208215
1122.08,0.006913393
1124.01,0.007787196
1125.93,0.008671003
1127.86,0.00930868
1129.79,0.010212
1131.72,0.01113829
1133.65,0.01219076
1135.58,0.0131313
1137.51,0.0139592
1139.43,0.0151017
1141.36,0.0163269
1143.29,0.0174528
1145.22,0.0185507
1147.15,0.0196465
1149.08,0.0208188
1151,0.0219234
1152.93,0.0230128
1154.86,0.02422524
1156.79,0.0253897
1158.72,0.0263864
1160.65,0.027294
1162.58,0.0285712
1164.5,0.0296131
1166.43,0.0305189
1168.36,0.0313544
1170.29,0.0320723
1172.22,0.033109
1174.15,0.034217
1176.07,0.0350589
1178,0.0357145
1179.93,0.0365896
1181.86,0.037332
1183.79,0.0377909
1185.72,0.0381352
1187.65,0.0387953
1189.57,0.0394779
1191.5,0.0398129
1193.43,0.0401626
1195.36,0.04069952
1197.29,0.0411207
1199.22,0.0411553
1201.14,0.0415571
1203.07,0.042037
1205,0.04219784
1206.93,0.0426312
1208.86,0.0426109
1210.79,0.0428427
1212.72,0.0432857
1214.64,0.0433636
1216.57,0.0430959
1218.5,0.0431307
1220.43,0.0433706
1222.36,0.0435117
1224.29,0.0435177
1226.21,0.0435444
1228.14,0.0435138
1230.07,0.04354
1232,0.0436877
1233.93,0.0435552
1235.86,0.0433642
1237.79,0.04350396
1239.71,0.0433615
1241.64,0.0434356
1243.57,0.043241
1245.5,0.04323433
1247.43,0.0433146
1249.36,0.0432196
1251.28,0.04316
1253.21,0.043298
1255.14,0.0433552
1257.07,0.04330928
1259,0.0432774
1260.93,0.04328199
1262.86,0.0435305
1264.78,0.04390554
1266.71,0.04396954
1268.64,0.0441377
1270.57,0.0445077
1272.5,0.0447066
1274.43,0.0447935
1276.35,0.0450377
1278.28,0.0453355
1280.21,0.0451287
1282.14,0.0453514
1284.07,0.0461574
1286,0.0466095
1287.93,0.0465996
1289.85,0.047099
1291.78,0.047501
1293.71,0.0479348
1295.64,0.0484463
1297.57,0.0487523
1299.5,0.0492743
1301.42,0.0496974
1303.35,0.0498366
1305.28,0.0500608
1307.21,0.0506651
1309.14,0.0507046
1311.07,0.0510005
1313,0.0514919
1314.92,0.0521095
1316.85,0.0527057
1318.78,0.0532882
1320.71,0.0533542
1322.64,0.0539707
1324.57,0.0540373
1326.5,0.0541906
1328.42,0.0546524
1330.35,0.0551236
1332.28,0.0554136
1334.21,0.0558873
1336.14,0.0562905
1338.07,0.0564392
1339.99,0.0565397
1341.92,0.0569211
1343.85,0.056958
1345.78,0.0569382
1347.71,0.0573374
1349.64,0.0577214
1351.57,0.0579849
1353.49,0.0581433
1355.42,0.0581558
1357.35,0.0583146
1359.28,0.0583918
1361.21,0.0585262
1363.14,0.058767
1365.06,0.0591146
1366.99,0.0591676
1368.92,0.058965
1370.85,0.0592397
1372.78,0.05912664
1374.71,0.059319
1376.64,0.0592462
1378.56,0.0591723
1380.49,0.0592896
1382.42,0.0593151
1384.35,0.0591064
1386.28,0.0588294
1388.21,0.0587271
1390.13,0.0587918
1392.06,0.0586883
1393.99,0.0586092
1395.92,0.0586984
1397.85,0.05838968
1399.78,0.0581643
1401.71,0.0579036
1403.63,0.0572583
1405.56,0.05697716
1407.49,0.0572498
1409.42,0.0569924
1411.35,0.05668235
1413.28,0.056345
1415.2,0.0557046
1417.13,0.0554065
1419.06,0.05546968
1420.99,0.0551953
1422.92,0.0548155
1424.85,0.0539912
1426.78,0.053668
1428.7,0.0536219
1430.63,0.0533049
1432.56,0.0528027
1434.49,0.0519918
1436.42,0.0515637
1438.35,0.0513624
1440.27,0.0507281
1442.2,0.050118
1444.13,0.0499385
1446.06,0.0495543
1447.99,0.0485296
1449.92,0.04811418
1451.85,0.0472875
1453.77,0.0468765
1455.7,0.0464729
1457.63,0.0456736
1459.56,0.0452748
1461.49,0.0445058
1463.42,0.0437609
1465.34,0.0431482
1467.27,0.04245184
1469.2,0.0418251
1471.13,0.0411778
1473.06,0.0402646
1474.99,0.0394753
1476.92,0.0384461
1478.84,0.03786916
1480.77,0.0368421
1482.7,0.0357838
1484.63,0.035015
1486.56,0.0340779
1488.49,0.0331096
1490.41,0.0318888
1492.34,0.0310331
1494.27,0.0299056
1496.2,0.0288298
1498.13,0.0279542
1500.06,0.0268615
1501.99,0.0260443
1503.91,0.0250375
1505.84,0.0241299
1507.77,0.0230878
1509.7,0.0221733
1511.63,0.02142463
1513.56,0.0205791
1515.48,0.0197306
1517.41,0.0187938
1519.34,0.0180336
1521.27,0.0171947
1523.2,0.0164763
1525.13,0.0159551
1527.06,0.0152986
1528.98,0.0143248
1530.91,0.01395
1532.84,0.01352579
1534.77,0.0130234
1536.7,0.0123076
1538.63,0.0115121
1540.55,0.0108493
1542.48,0.01028043
1544.41,0.009670826
1546.34,0.009030006
1548.27,0.00891134
1550.2,0.008753299
1552.13,0.008604397
1554.05,0.009255581
1555.98,0.009967293
1557.91,0.008849912
1559.84,0.007120403
1561.77,0.00575843
1563.7,0.005100544
1565.62,0.004716796
1567.55,0.00430178
1569.48,0.004201918
1571.41,0.00329896
1573.34,0.002928975
1575.27,0.002915699
1577.2,0.002573659
1579.12,0.002121035
1581.05,0.001866416
1582.98,0.001610916
1584.91,0.001585174
1586.84,0.000966755
1588.77,0.000688312
1590.69,0.000479824
1592.62,0.000472164
1594.55,0.000393699
1596.48,1.01E-06
1598.41,0.000175108
1599.37,3.92E-05