File: PhD Work/Raman Plotter_050524/Plot Data/UG Glasses/CaZn/JC_UG_CaZn2_5th_cut_bas_ther_vect_040624.csv
RamanShift,CaZn2
49.85,-6.86E-05
51.78,7.75E-06
53.71,7.30E-05
55.64,0.000208309
57.56,0.000381016
59.49,0.000539198
61.42,0.000610889
63.35,0.000611958
65.28,0.000619524
67.21,0.000697049
69.13,0.000840982
71.06,0.001006511
72.99,0.001143934
74.92,0.00122529
76.85,0.0012541
78.78,0.001300326
80.71,0.001383152
82.63,0.001489513
84.56,0.001539443
86.49,0.001546712
88.42,0.001600285
90.35,0.001749906
92.28,0.001883032
94.2,0.001934838
96.13,0.001915589
98.06,0.001909104
99.99,0.001888338
101.92,0.001919921
103.85,0.002033782
105.78,0.00216358
107.7,0.002223724
109.63,0.00220024
111.56,0.00211809
113.49,0.002142867
115.42,0.002208689
117.35,0.002249194
119.27,0.002249105
121.2,0.002268168
123.13,0.002332457
125.06,0.002351184
126.99,0.002297395
128.92,0.002256795
130.85,0.002247451
132.77,0.002243981
134.7,0.002239155
136.63,0.002266726
138.56,0.002281873
140.49,0.002277332
142.42,0.002240747
144.34,0.002168678
146.27,0.00209227
148.2,0.002089507
150.13,0.0021041
152.06,0.002143074
153.99,0.002147764
155.92,0.002099058
157.84,0.002030422
159.77,0.001976076
161.7,0.001953156
163.63,0.00192356
165.56,0.001879874
167.49,0.001871809
169.41,0.00189724
171.34,0.001913684
173.27,0.001870917
175.2,0.001821483
177.13,0.001781608
179.06,0.001730105
180.99,0.001699028
182.91,0.001711554
184.84,0.001700207
186.77,0.001673961
188.7,0.001689736
190.63,0.001662953
192.56,0.001600087
194.48,0.001589559
196.41,0.001557958
198.34,0.001506588
200.27,0.001526801
202.2,0.001554445
204.13,0.001620114
206.06,0.001646856
207.98,0.001613219
209.91,0.001607059
211.84,0.001604097
213.77,0.001626237
215.7,0.001664959
217.63,0.001687438
219.55,0.001695662
221.48,0.001695748
223.41,0.001698889
225.34,0.001677902
227.27,0.001665514
229.2,0.001680343
231.13,0.001709648
233.05,0.001732089
234.98,0.00172785
236.91,0.00168378
238.84,0.001688303
240.77,0.001765494
242.7,0.001812584
244.62,0.001873704
246.55,0.001936815
248.48,0.001951812
250.41,0.001948334
252.34,0.001981364
254.27,0.002049545
256.2,0.002094424
258.12,0.002057391
260.05,0.00204872
261.98,0.002143297
263.91,0.002219656
265.84,0.002179455
267.77,0.00214366
269.69,0.002143691
271.62,0.002137419
273.55,0.00217358
275.48,0.002171631
277.41,0.002081257
279.34,0.002044323
281.27,0.002164902
283.19,0.002289598
285.12,0.002299311
287.05,0.00222584
288.98,0.002323433
290.91,0.002403903
292.84,0.002410075
294.76,0.002460678
296.69,0.002556113
298.62,0.002622119
300.55,0.002695895
302.48,0.00271703
304.41,0.002718114
306.34,0.00271284
308.26,0.002836395
310.19,0.002934113
312.12,0.003012431
314.05,0.00305353
315.98,0.003160843
317.91,0.00329475
319.83,0.003322786
321.76,0.003297319
323.69,0.003352133
325.62,0.003458168
327.55,0.003569522
329.48,0.003682329
331.41,0.003831299
333.33,0.003967364
335.26,0.004182766
337.19,0.004334193
339.12,0.004524892
341.05,0.004835152
342.98,0.005067152
344.91,0.005218859
346.83,0.005443552
348.76,0.005777873
350.69,0.006042978
352.62,0.006321862
354.55,0.006585315
356.48,0.006864066
358.4,0.007223973
360.33,0.007525628
362.26,0.007717182
364.19,0.00795372
366.12,0.008317993
368.05,0.008581228
369.98,0.008791162
371.9,0.009089804
373.83,0.009347783
375.76,0.0096791
377.69,0.009925618
379.62,0.01015202
381.55,0.0103758
383.47,0.0105965
385.4,0.0107733
387.33,0.0111338
389.26,0.0115439
391.19,0.0117314
393.12,0.0118779
395.05,0.0121302
396.97,0.0124693
398.9,0.0125423
400.83,0.0126222
402.76,0.0128027
404.69,0.013006
406.62,0.0131608
408.54,0.0134765
410.47,0.01360168
412.4,0.0134242
414.33,0.0133959
416.26,0.0134956
418.19,0.0135136
420.12,0.0135871
422.04,0.01360529
423.97,0.0134978
425.9,0.0133403
427.83,0.01330847
429.76,0.0133875
431.69,0.013194
433.61,0.0130085
435.54,0.0129976
437.47,0.0129994
439.4,0.0128408
441.33,0.0126814
443.26,0.0125212
445.19,0.01246381
447.11,0.0124862
449.04,0.0125105
450.97,0.0123917
452.9,0.0122789
454.83,0.0121786
456.76,0.0119482
458.68,0.0116949
460.61,0.0116999
462.54,0.0118092
464.47,0.0117575
466.4,0.0117522
468.33,0.0116678
470.26,0.011387
472.18,0.0112693
474.11,0.0113225
476.04,0.0112532
477.97,0.0111088
479.9,0.011115
481.83,0.0111433
483.75,0.0111733
485.68,0.01107988
487.61,0.0108125
489.54,0.0106617
491.47,0.0103672
493.4,0.0101179
495.33,0.0101049
497.25,0.0100108
499.18,0.009806319
501.11,0.009663578
503.04,0.009573979
504.97,0.009439619
506.9,0.009305829
508.82,0.009123791
510.75,0.008944542
512.68,0.00881957
514.61,0.008710203
516.54,0.008472721
518.47,0.008237453
520.4,0.008019515
522.32,0.007599841
524.25,0.007282193
526.18,0.007032329
528.11,0.006692784
530.04,0.006524318
531.97,0.006542363
533.89,0.006383817
535.82,0.005999439
537.75,0.005571873
539.68,0.005113688
541.61,0.004746097
543.54,0.00455011
545.47,0.004309399
547.39,0.003956311
549.32,0.003497489
551.25,0.002855709
553.18,0.002343759
555.11,0.002247474
557.04,0.002056965
558.96,0.001757184
560.89,0.001476751
562.82,0.000976875
564.75,0.000606493
566.68,0.000350577
568.61,0.000230417
570.54,0.00019125
572.46,2.95E-05
574.39,1.48E-05
576.32,7.74E-05
578.25,0.000160685
580.18,9.43E-05
582.11,0.000224832
584.03,0.000499519
585.96,0.000717912
587.89,0.000914616
589.82,0.001133665
591.75,0.001597905
593.68,0.001797804
595.61,0.002011304
597.53,0.002406871
599.46,0.00285397
601.39,0.003125912
603.32,0.00346697
605.25,0.003972712
607.18,0.004473309
609.1,0.004866902
611.03,0.005306952
612.96,0.005837415
614.89,0.006231673
616.82,0.006816836
618.75,0.00733107
620.68,0.007792407
622.6,0.008123995
624.53,0.008473974
626.46,0.009018209
628.39,0.009669144
630.32,0.01005769
632.25,0.0104199
634.18,0.0110216
636.1,0.0115559
638.03,0.0118979
639.96,0.0123932
641.89,0.0129679
643.82,0.0134243
645.75,0.0136413
647.67,0.013946
649.6,0.0144872
651.53,0.01518
653.46,0.0154359
655.39,0.0155951
657.32,0.0162172
659.25,0.0168538
661.17,0.0171829
663.1,0.0175212
665.03,0.0180616
666.96,0.0185086
668.89,0.018882
670.82,0.0191879
672.74,0.0194148
674.67,0.0195519
676.6,0.0196965
678.53,0.019916
680.46,0.0199696
682.39,0.019984
684.32,0.0200516
686.24,0.01976
688.17,0.0197219
690.1,0.0196505
692.03,0.0194402
693.96,0.0191006
695.89,0.01886409
697.81,0.01882686
699.74,0.0188002
701.67,0.0185478
703.6,0.0182338
705.53,0.0184936
707.46,0.0188592
709.39,0.0191671
711.31,0.0194876
713.24,0.0196518
715.17,0.01999081
717.1,0.0203241
719.03,0.0206363
720.96,0.0210152
722.88,0.0215953
724.81,0.0221446
726.74,0.0224771
728.67,0.0227222
730.6,0.0231395
732.53,0.0237736
734.46,0.0242628
736.38,0.0246602
738.31,0.02527267
740.24,0.0260784
742.17,0.0268057
744.1,0.0273144
746.03,0.0277941
747.95,0.0284521
749.88,0.0289857
751.81,0.02940941
753.74,0.0296574
755.67,0.0300728
757.6,0.03029492
759.53,0.0304159
761.45,0.0302746
763.38,0.0300912
765.31,0.0297618
767.24,0.0290949
769.17,0.0282491
771.1,0.0272268
773.02,0.0260554
774.95,0.0248304
776.88,0.0234503
778.81,0.0218547
780.74,0.0199698
782.67,0.0182
784.6,0.0163423
786.52,0.0145153
788.45,0.0129978
790.38,0.0115565
792.31,0.0100802
794.24,0.008741581
796.17,0.007351262
798.09,0.005878468
800.02,0.004814905
801.95,0.004199302
803.88,0.003636888
805.81,0.003097391
807.74,0.002669242
809.67,0.002415405
811.59,0.00217335
813.52,0.002049918
815.45,0.002144397
817.38,0.002266258
819.31,0.002550434
821.24,0.003079403
823.16,0.003584375
825.09,0.003870313
827.02,0.004076108
828.95,0.004305828
830.88,0.004769839
832.81,0.005483959
834.74,0.005972415
836.66,0.006435871
838.59,0.006883474
840.52,0.007203762
842.45,0.007418908
844.38,0.007546548
846.31,0.007782357
848.23,0.007911525
850.16,0.008003717
852.09,0.008393429
854.02,0.008506203
855.95,0.008524636
857.88,0.008490732
859.81,0.008594835
861.73,0.008780685
863.66,0.008622137
865.59,0.008712694
867.52,0.008827754
869.45,0.008488713
871.38,0.008142761
873.3,0.007960123
875.23,0.007869047
877.16,0.007596398
879.09,0.007150487
881.02,0.006741357
882.95,0.006344675
884.88,0.006010008
886.8,0.005688317
888.73,0.005394606
890.66,0.005159092
892.59,0.004867173
894.52,0.004829265
896.45,0.004946897
898.37,0.005140711
900.3,0.005300108
902.23,0.00551603
904.16,0.005890538
906.09,0.006236468
908.02,0.006650522
909.95,0.007204982
911.87,0.00801905
913.8,0.008868243
915.73,0.009887029
917.66,0.0109163
919.59,0.0118367
921.52,0.0126005
923.45,0.013749
925.37,0.01503933
927.3,0.0161685
929.23,0.017051
931.16,0.0182648
933.09,0.01915166
935.02,0.0197356
936.94,0.0205825
938.87,0.0217852
940.8,0.0226682
942.73,0.0234859
944.66,0.0242646
946.59,0.0251223
948.52,0.02607591
950.44,0.0266335
952.37,0.0273513
954.3,0.0281213
956.23,0.0285733
958.16,0.0287212
960.09,0.0292477
962.01,0.0296004
963.94,0.02969055
965.87,0.0298967
967.8,0.03014238
969.73,0.0302336
971.66,0.0306309
973.59,0.030868
975.51,0.03077043
977.44,0.0306779
979.37,0.0307587
981.3,0.0306482
983.23,0.0306045
985.16,0.03045835
987.08,0.0302315
989.01,0.0300262
990.94,0.0297911
992.87,0.029526
994.8,0.0291847
996.73,0.0284338
998.66,0.0270341
1000.58,0.0263657
1002.51,0.0257923
1004.44,0.0248797
1006.37,0.0237413
1008.3,0.0226264
1010.23,0.021465
1012.15,0.020403
1014.08,0.0193475
1016.01,0.018628
1017.94,0.0178282
1019.87,0.0164746
1021.8,0.0155884
1023.73,0.01490568
1025.65,0.0141719
1027.58,0.013345
1029.51,0.0126457
1031.44,0.011787
1033.37,0.0109482
1035.3,0.010527
1037.23,0.01003728
1039.15,0.009436272
1041.08,0.008838351
1043.01,0.008115899
1044.94,0.007554632
1046.87,0.007265566
1048.8,0.006766905
1050.72,0.006014136
1052.65,0.00551623
1054.58,0.004978944
1056.51,0.004636934
1058.44,0.004355248
1060.37,0.003960438
1062.3,0.003414373
1064.22,0.003084184
1066.15,0.002789904
1068.08,0.00248171
1070.01,0.002128096
1071.94,0.001879886
1073.87,0.001655765
1075.79,0.001063839
1077.72,0.000767069
1079.65,0.000602373
1081.58,0.000443291
1083.51,0.000519647
1085.44,0.000430015
1087.37,0.000423327
1089.29,0.00014681
1091.22,4.19E-06
1093.15,0.000177234
1095.08,0.000499855
1097.01,0.000506199
1098.94,0.000603549
1100.86,0.000961954
1102.79,0.001282691
1104.72,0.001408577
1106.65,0.001430111
1108.58,0.001924866
1110.51,0.002434977
1112.44,0.002808715
1114.36,0.003065098
1116.29,0.003567809
1118.22,0.004391639
1120.15,0.005159138
1122.08,0.005783159
1124.01,0.00655702
1125.93,0.007354333
1127.86,0.007953582
1129.79,0.008723696
1131.72,0.009449814
1133.65,0.0103414
1135.58,0.0112096
1137.51,0.01202719
1139.43,0.0130592
1141.36,0.0140547
1143.29,0.0152253
1145.22,0.0163117
1147.15,0.0171488
1149.08,0.0183402
1151,0.0192951
1152.93,0.0202127
1154.86,0.0213695
1156.79,0.0225033
1158.72,0.0234263
1160.65,0.0242972
1162.58,0.0255069
1164.5,0.0264555
1166.43,0.0272328
1168.36,0.02804125
1170.29,0.0288459
1172.22,0.0297525
1174.15,0.0307194
1176.07,0.0314844
1178,0.0321105
1179.93,0.0330096
1181.86,0.0337695
1183.79,0.0340105
1185.72,0.0344888
1187.65,0.035263
1189.57,0.0359321
1191.5,0.03624365
1193.43,0.0366646
1195.36,0.0369639
1197.29,0.0375543
1199.22,0.0376237
1201.14,0.0379841
1203.07,0.0384628
1205,0.0385337
1206.93,0.0390296
1208.86,0.0390941
1210.79,0.039394
1212.72,0.0399308
1214.64,0.0400924
1216.57,0.0397587
1218.5,0.0399501
1220.43,0.0401941
1222.36,0.0403717
1224.29,0.0405049
1226.21,0.0406457
1228.14,0.0405996
1230.07,0.0406732
1232,0.0408673
1233.93,0.0408131
1235.86,0.0407281
1237.79,0.0409378
1239.71,0.0407381
1241.64,0.0406973
1243.57,0.040656
1245.5,0.0407517
1247.43,0.040901
1249.36,0.0409127
1251.28,0.0408164
1253.21,0.0409352
1255.14,0.0409309
1257.07,0.0409262
1259,0.0409754
1260.93,0.0409315
1262.86,0.040996
1264.78,0.041543
1266.71,0.0417565
1268.64,0.0419082
1270.57,0.0421621
1272.5,0.0422833
1274.43,0.0424125
1276.35,0.0425811
1278.28,0.0429161
1280.21,0.0427144
1282.14,0.0428127
1284.07,0.0435703
1286,0.0441794
1287.93,0.044105
1289.85,0.0445809
1291.78,0.0448426
1293.71,0.0452734
1295.64,0.0458905
1297.57,0.0461313
1299.5,0.0465664
1301.42,0.0469297
1303.35,0.0470678
1305.28,0.0471981
1307.21,0.0476537
1309.14,0.0477362
1311.07,0.0479901
1313,0.0485553
1314.92,0.0492368
1316.85,0.0497733
1318.78,0.050295
1320.71,0.0504559
1322.64,0.0510876
1324.57,0.0513245
1326.5,0.0513963
1328.42,0.0518829
1330.35,0.0524212
1332.28,0.0526696
1334.21,0.053236
1336.14,0.053687
1338.07,0.0537959
1339.99,0.053938
1341.92,0.0544172
1343.85,0.0545103
1345.78,0.0545189
1347.71,0.0550265
1349.64,0.0554848
1351.57,0.0557747
1353.49,0.0561671
1355.42,0.0563223
1357.35,0.0562557
1359.28,0.0563853
1361.21,0.0567209
1363.14,0.0571863
1365.06,0.0577128
1366.99,0.0578191
1368.92,0.0576144
1370.85,0.0581183
1372.78,0.0581816
1374.71,0.058488
1376.64,0.0584384
1378.56,0.0585274
1380.49,0.0589051
1382.42,0.0589513
1384.35,0.058673
1386.28,0.0585778
1388.21,0.0587195
1390.13,0.0588787
1392.06,0.0588442
1393.99,0.0589509
1395.92,0.0592526
1397.85,0.0588891
1399.78,0.0587464
1401.71,0.0586563
1403.63,0.058083
1405.56,0.0578745
1407.49,0.0582922
1409.42,0.0581365
1411.35,0.057971
1413.28,0.0576784
1415.2,0.0570591
1417.13,0.0568898
1419.06,0.0571273
1420.99,0.0570023
1422.92,0.0567947
1424.85,0.05592107
1426.78,0.0556828
1428.7,0.05561676
1430.63,0.0552575
1432.56,0.0548874
1434.49,0.0542216
1436.42,0.0539491
1438.35,0.0537491
1440.27,0.0532983
1442.2,0.0529014
1444.13,0.0527997
1446.06,0.0523814
1447.99,0.0517566
1449.92,0.0512133
1451.85,0.0505369
1453.77,0.05026
1455.7,0.0498416
1457.63,0.0490082
1459.56,0.0487172
1461.49,0.0481893
1463.42,0.0474422
1465.34,0.0468149
1467.27,0.0462328
1469.2,0.0457243
1471.13,0.0450427
1473.06,0.0440155
1474.99,0.0433376
1476.92,0.0422078
1478.84,0.0415715
1480.77,0.04062603
1482.7,0.0395906
1484.63,0.0387438
1486.56,0.03777816
1488.49,0.0366834
1490.41,0.0355845
1492.34,0.0346271
1494.27,0.033472
1496.2,0.0323029
1498.13,0.03125643
1500.06,0.0301572
1501.99,0.0293963
1503.91,0.0282798
1505.84,0.0272675
1507.77,0.0260745
1509.7,0.0250545
1511.63,0.0242478
1513.56,0.02327024
1515.48,0.02230899
1517.41,0.0212353
1519.34,0.0204358
1521.27,0.0194644
1523.2,0.0187486
1525.13,0.0183098
1527.06,0.0174594
1528.98,0.0164859
1530.91,0.0162012
1532.84,0.0156139
1534.77,0.0149541
1536.7,0.0141206
1538.63,0.0133043
1540.55,0.0126977
1542.48,0.011937
1544.41,0.0113258
1546.34,0.0106006
1548.27,0.0104741
1550.2,0.0102348
1552.13,0.0100253
1554.05,0.0108802
1555.98,0.0116456
1557.91,0.0102145
1559.84,0.00818154
1561.77,0.006595324
1563.7,0.005933209
1565.62,0.005568967
1567.55,0.005037547
1569.48,0.00495065
1571.41,0.003906888
1573.34,0.003484478
1575.27,0.003561386
1577.2,0.003283241
1579.12,0.002784486
1581.05,0.002409714
1582.98,0.002044178
1584.91,0.001887809
1586.84,0.001309417
1588.77,0.00097184
1590.69,0.000686169
1592.62,0.000632362
1594.55,0.000472293
1596.48,1.42E-05
1598.41,0.000310198
1599.37,9.12E-05