File: Year 3/Mossbauer/XRD_SLS1_raw.csv
Angle,Intensity
5.00897,2789
5.07462,2780
5.14027,2814
5.20592,2822
5.27157,2951
5.33722,2859
5.40287,2980
5.46853,3001
5.53418,3105
5.59983,3160
5.66548,3157
5.73113,3216
5.79678,3209
5.86243,3306
5.92808,3211
5.99374,3324
6.05939,3445
6.12504,3356
6.19069,3366
6.25634,3552
6.32199,3497
6.38764,3590
6.4533,3518
6.51895,3732
6.5846,3743
6.65025,3768
6.7159,3739
6.78155,3744
6.8472,3832
6.91286,3873
6.97851,3986
7.04416,3842
7.10981,3985
7.17546,3846
7.24111,3991
7.30676,4115
7.37242,4116
7.43807,4118
7.50372,4081
7.56937,4256
7.63502,4238
7.70067,4177
7.76632,4323
7.83198,4261
7.89763,4471
7.96328,4447
8.02893,4456
8.09458,4555
8.16023,4490
8.22588,4536
8.29154,4466
8.35719,4604
8.42284,4508
8.48849,4620
8.55414,4603
8.61979,4522
8.68544,4738
8.7511,4854
8.81675,4789
8.8824,4865
8.94805,4994
9.0137,4772
9.07935,4800
9.145,4932
9.21066,4972
9.27631,4862
9.34196,4992
9.40761,4869
9.47326,4978
9.53891,5078
9.60456,5035
9.67022,5067
9.73587,5140
9.80152,5102
9.86717,5012
9.93282,5072
9.99847,5065
10.0641,5147
10.1298,5264
10.1954,5304
10.2611,5277
10.3267,5395
10.3924,5309
10.458,5290
10.5237,5270
10.5893,5466
10.655,5393
10.7206,5319
10.7863,5281
10.8519,5459
10.9176,5374
10.9832,5428
11.0489,5414
11.1145,5478
11.1802,5476
11.2458,5418
11.3115,5559
11.3772,5495
11.4428,5461
11.5085,5487
11.5741,5574
11.6398,5464
11.7054,5500
11.7711,5424
11.8367,5642
11.9024,5590
11.968,5613
12.0337,5534
12.0993,5717
12.165,5562
12.2306,5640
12.2963,5794
12.3619,5562
12.4276,5749
12.4932,5617
12.5589,5610
12.6245,5671
12.6902,5669
12.7558,5621
12.8215,5567
12.8871,5613
12.9528,5778
13.0184,5751
13.0841,5656
13.1497,5660
13.2154,5649
13.281,5769
13.3467,5759
13.4123,5759
13.478,5786
13.5436,5599
13.6093,5837
13.675,5787
13.7406,5681
13.8063,5790
13.8719,5891
13.9376,5853
14.0032,5784
14.0689,5889
14.1345,5791
14.2002,5784
14.2658,5779
14.3315,5924
14.3971,5814
14.4628,5868
14.5284,5887
14.5941,5740
14.6597,5894
14.7254,5860
14.791,5870
14.8567,5796
14.9223,5809
14.988,5817
15.0536,5863
15.1193,5695
15.1849,5707
15.2506,5706
15.3162,5892
15.3819,5747
15.4475,5744
15.5132,5695
15.5788,5879
15.6445,5804
15.7101,5694
15.7758,5748
15.8414,5870
15.9071,5824
15.9728,5780
16.0384,5750
16.1041,5794
16.1697,5692
16.2354,5789
16.301,5795
16.3667,5599
16.4323,5683
16.498,5806
16.5636,5707
16.6293,5710
16.6949,5621
16.7606,5598
16.8262,5566
16.8919,5719
16.9575,5794
17.0232,5689
17.0888,5616
17.1545,5671
17.2201,5466
17.2858,5642
17.3514,5591
17.4171,5548
17.4827,5713
17.5484,5642
17.614,5568
17.6797,5509
17.7453,5494
17.811,5593
17.8766,5458
17.9423,5503
18.0079,5635
18.0736,5559
18.1392,5513
18.2049,5518
18.2706,5392
18.3362,5560
18.4019,5512
18.4675,5547
18.5332,5395
18.5988,5401
18.6645,5483
18.7301,5541
18.7958,5431
18.8614,5379
18.9271,5427
18.9927,5409
19.0584,5482
19.124,5386
19.1897,5498
19.2553,5376
19.321,5505
19.3866,5419
19.4523,5404
19.5179,5377
19.5836,5409
19.6492,5224
19.7149,5430
19.7805,5405
19.8462,5393
19.9118,5411
19.9775,5294
20.0431,5397
20.1088,5444
20.1744,5442
20.2401,5263
20.3057,5311
20.3714,5257
20.437,5246
20.5027,5376
20.5684,5308
20.634,5374
20.6997,5302
20.7653,5450
20.831,5234
20.8966,5359
20.9623,5229
21.0279,5401
21.0936,5428
21.1592,5384
21.2249,5407
21.2905,5313
21.3562,5313
21.4218,5286
21.4875,5436
21.5531,5351
21.6188,5293
21.6844,5401
21.7501,5301
21.8157,5398
21.8814,5313
21.947,5351
22.0127,5200
22.0783,5385
22.144,5216
22.2096,5343
22.2753,5578
22.3409,5380
22.4066,5382
22.4722,5342
22.5379,5398
22.6035,5308
22.6692,5336
22.7348,5316
22.8005,5447
22.8661,5308
22.9318,5368
22.9975,5295
23.0631,5457
23.1288,5307
23.1944,5395
23.2601,5450
23.3257,5525
23.3914,5467
23.457,5367
23.5227,5594
23.5883,5341
23.654,5361
23.7196,5369
23.7853,5339
23.8509,5380
23.9166,5363
23.9822,5348
24.0479,5381
24.1135,5427
24.1792,5390
24.2448,5430
24.3105,5492
24.3761,5446
24.4418,5207
24.5074,5411
24.5731,5376
24.6387,5401
24.7044,5362
24.77,5276
24.8357,5520
24.9013,5376
24.967,5333
25.0326,5350
25.0983,5268
25.1639,5268
25.2296,5373
25.2953,5432
25.3609,5474
25.4266,5283
25.4922,5311
25.5579,5519
25.6235,5367
25.6892,5392
25.7548,5344
25.8205,5482
25.8861,5466
25.9518,5276
26.0174,5321
26.0831,5364
26.1487,5476
26.2144,5380
26.28,5466
26.3457,5231
26.4113,5295
26.477,5273
26.5426,5267
26.6083,5340
26.6739,5346
26.7396,5270
26.8052,5325
26.8709,5380
26.9365,5382
27.0022,5233
27.0678,5277
27.1335,5212
27.1991,5259
27.2648,5216
27.3304,5414
27.3961,5275
27.4617,5362
27.5274,5318
27.5931,5427
27.6587,5212
27.7244,5367
27.79,5265
27.8557,5344
27.9213,5175
27.987,5193
28.0526,5174
28.1183,5319
28.1839,5248
28.2496,5207
28.3152,5204
28.3809,5175
28.4465,5235
28.5122,5052
28.5778,5133
28.6435,5159
28.7091,5137
28.7748,5130
28.8404,5199
28.9061,5150
28.9717,5055
29.0374,5039
29.103,4996
29.1687,5088
29.2343,5047
29.3,5061
29.3656,5127
29.4313,4920
29.4969,4955
29.5626,4973
29.6282,4906
29.6939,4973
29.7595,5079
29.8252,5020
29.8909,5007
29.9565,4934
30.0222,5002
30.0878,4978
30.1535,4897
30.2191,5007
30.2848,4908
30.3504,4841
30.4161,4901
30.4817,4926
30.5474,4907
30.613,4780
30.6787,4809
30.7443,4713
30.81,4866
30.8756,4833
30.9413,4878
31.0069,4862
31.0726,4804
31.1382,4865
31.2039,4711
31.2695,4779
31.3352,4674
31.4008,4732
31.4665,4672
31.5321,4675
31.5978,4634
31.6634,4614
31.7291,4684
31.7947,4687
31.8604,4588
31.926,4537
31.9917,4689
32.0573,4522
32.123,4507
32.1887,4590
32.2543,4540
32.32,4491
32.3856,4416
32.4513,4579
32.5169,4444
32.5826,4396
32.6482,4506
32.7139,4392
32.7795,4456
32.8452,4390
32.9108,4392
32.9765,4306
33.0421,4469
33.1078,4312
33.1734,4343
33.2391,4356
33.3047,4281
33.3704,4176
33.436,4348
33.5017,4387
33.5673,4308
33.633,4250
33.6986,4251
33.7643,4321
33.8299,4236
33.8956,4241
33.9612,4270
34.0269,4149
34.0925,4229
34.1582,4299
34.2238,4252
34.2895,4257
34.3551,4092
34.4208,4128
34.4864,4167
34.5521,4023
34.6178,4112
34.6834,4147
34.7491,4134
34.8147,4187
34.8804,4014
34.946,4105
35.0117,4031
35.0773,4068
35.143,4059
35.2086,4042
35.2743,4048
35.3399,4135
35.4056,4032
35.4712,3985
35.5369,3965
35.6025,3988
35.6682,4079
35.7338,3944
35.7995,3929
35.8651,4052
35.9308,3945
35.9964,3909
36.0621,3912
36.1277,3892
36.1934,3924
36.259,3924
36.3247,3922
36.3903,3847
36.456,3956
36.5216,3940
36.5873,3885
36.6529,3824
36.7186,3903
36.7842,3906
36.8499,3794
36.9156,3869
36.9812,3844
37.0469,3861
37.1125,3744
37.1782,3748
37.2438,3832
37.3095,3716
37.3751,3691
37.4408,3603
37.5064,3714
37.5721,3742
37.6377,3670
37.7034,3724
37.769,3696
37.8347,3637
37.9003,3595
37.966,3658
38.0316,3759
38.0973,3615
38.1629,3619
38.2286,3583
38.2942,3546
38.3599,3502
38.4255,3557
38.4912,3423
38.5568,3524
38.6225,3602
38.6881,3452
38.7538,3538
38.8194,3333
38.8851,3512
38.9507,3477
39.0164,3495
39.082,3396
39.1477,3341
39.2134,3377
39.279,3330
39.3447,3342
39.4103,3287
39.476,3461
39.5416,3310
39.6073,3342
39.6729,3424
39.7386,3234
39.8042,3270
39.8699,3214
39.9355,3426
40.0012,3356
40.0668,3182
40.1325,3153
40.1981,3208
40.2638,3272
40.3294,3126
40.3951,3294
40.4607,3242
40.5264,3122
40.592,3213
40.6577,3107
40.7233,3183
40.789,3193
40.8546,3082
40.9203,3120
40.9859,3152
41.0516,3201
41.1172,3152
41.1829,3068
41.2485,3110
41.3142,3042
41.3798,3088
41.4455,3110
41.5112,3049
41.5768,3069
41.6425,3060
41.7081,3049
41.7738,3043
41.8394,2946
41.9051,3023
41.9707,2907
42.0364,3018
42.102,2894
42.1677,2886
42.2333,2949
42.299,2989
42.3646,2912
42.4303,2995
42.4959,2808
42.5616,2946
42.6272,2927
42.6929,2814
42.7585,2767
42.8242,2871
42.8898,2711
42.9555,2799
43.0211,2753
43.0868,2742
43.1524,2784
43.2181,2712
43.2837,2745
43.3494,2807
43.415,2799
43.4807,2782
43.5463,2711
43.612,2685
43.6776,2658
43.7433,2681
43.809,2671
43.8746,2627
43.9403,2688
44.0059,2663
44.0716,2749
44.1372,2626
44.2029,2669
44.2685,2675
44.3342,2609
44.3998,2760
44.4655,2618
44.5311,2551
44.5968,2686
44.6624,2667
44.7281,2477
44.7937,2557
44.8594,2628
44.925,2568
44.9907,2523
45.0563,2622
45.122,2574
45.1876,2614
45.2533,2614
45.3189,2629
45.3846,2495
45.4502,2554
45.5159,2547
45.5815,2558
45.6472,2494
45.7128,2511
45.7785,2558
45.8441,2527
45.9098,2508
45.9754,2483
46.0411,2522
46.1067,2415
46.1724,2524
46.2381,2515
46.3037,2546
46.3694,2501
46.435,2550
46.5007,2486
46.5663,2512
46.632,2450
46.6976,2506
46.7633,2437
46.8289,2488
46.8946,2435
46.9602,2439
47.0259,2502
47.0915,2551
47.1572,2420
47.2228,2544
47.2885,2572
47.3541,2608
47.4198,2508
47.4854,2387
47.5511,2494
47.6167,2607
47.6824,2504
47.748,2459
47.8137,2378
47.8793,2419
47.945,2455
48.0106,2432
48.0763,2373
48.1419,2466
48.2076,2402
48.2732,2453
48.3389,2438
48.4045,2392
48.4702,2407
48.5359,2353
48.6015,2411
48.6672,2420
48.7328,2438
48.7985,2392
48.8641,2456
48.9298,2445
48.9954,2322
49.0611,2407
49.1267,2564
49.1924,2375
49.258,2389
49.3237,2444
49.3893,2373
49.455,2314
49.5206,2387
49.5863,2395
49.6519,2372
49.7176,2416
49.7832,2349
49.8489,2431
49.9145,2415
49.9802,2420
50.0458,2426
50.1115,2317
50.1771,2372
50.2428,2355
50.3084,2317
50.3741,2386
50.4397,2383
50.5054,2351
50.571,2418
50.6367,2322
50.7023,2358
50.768,2314
50.8337,2303
50.8993,2227
50.965,2337
51.0306,2337
51.0963,2259
51.1619,2368
51.2276,2248
51.2932,2292
51.3589,2312
51.4245,2285
51.4902,2343
51.5558,2258
51.6215,2263
51.6871,2295
51.7528,2332
51.8184,2339
51.8841,2263
51.9497,2259
52.0154,2340
52.081,2231
52.1467,2193
52.2123,2249
52.278,2262
52.3436,2174
52.4093,2290
52.4749,2292
52.5406,2307
52.6062,2254
52.6719,2277
52.7375,2279
52.8032,2241
52.8688,2113
52.9345,2179
53.0001,2228
53.0658,2160
53.1315,2229
53.1971,2245
53.2628,2232
53.3284,2203
53.3941,2165
53.4597,2321
53.5254,2143
53.591,2267
53.6567,2179
53.7223,2146
53.788,2196
53.8536,2163
53.9193,2191
53.9849,2109
54.0506,2077
54.1162,2141
54.1819,2199
54.2475,2086
54.3132,2202
54.3788,2125
54.4445,2162
54.5101,2158
54.5758,2195
54.6414,2212
54.7071,2051
54.7727,2114
54.8384,2193
54.904,2196
54.9697,2119
55.0353,2080
55.101,1986
55.1666,2115
55.2323,2101
55.2979,2175
55.3636,2118
55.4293,2049
55.4949,2119
55.5606,2022
55.6262,2094
55.6919,2022
55.7575,2069
55.8232,2074
55.8888,2108
55.9545,2122
56.0201,2123
56.0858,2090
56.1514,2032
56.2171,2044
56.2827,2032
56.3484,2159
56.414,2017
56.4797,2082
56.5453,2097
56.611,2111
56.6766,2106
56.7423,2033
56.8079,2123
56.8736,2092
56.9392,2050
57.0049,2023
57.0705,2037
57.1362,1953
57.2018,1923
57.2675,1965
57.3331,2068
57.3988,2051
57.4644,2050
57.5301,2000
57.5957,2036
57.6614,1969
57.7271,1999
57.7927,2023
57.8584,2026
57.924,1974
57.9897,2073
58.0553,1943
58.121,1978
58.1866,1971
58.2523,2011
58.3179,1997
58.3836,1868
58.4492,1976
58.5149,2072
58.5805,1982
58.6462,1947
58.7118,1990
58.7775,2036
58.8431,1998
58.9088,2019
58.9744,2007
59.0401,2038
59.1057,1928
59.1714,1912
59.237,1891
59.3027,1975
59.3683,1967
59.434,1916
59.4996,1970
59.5653,1909
59.6309,1965
59.6966,1966
59.7622,1974
59.8279,1980
59.8935,1914
59.9592,1989
60.0248,1906
60.0905,1927
60.1562,1996
60.2218,1912
60.2875,2013
60.3531,1938
60.4188,1890
60.4844,1988
60.5501,1877
60.6157,1907
60.6814,1899
60.747,1988
60.8127,1958
60.8783,1914
60.944,2004
61.0096,1964
61.0753,1921
61.1409,1886
61.2066,1969
61.2722,1970
61.3379,1888
61.4035,1903
61.4692,1890
61.5348,1969
61.6005,1877
61.6661,1881
61.7318,1994
61.7974,1938
61.8631,1923
61.9287,1880
61.9944,1935
62.06,1912
62.1257,1910
62.1913,1909
62.257,1845
62.3226,1853
62.3883,1853
62.454,1835
62.5196,1910
62.5853,1893
62.6509,1912
62.7166,1932
62.7822,1852
62.8479,1829
62.9135,1880
62.9792,1830
63.0448,1913
63.1105,1862
63.1761,1900
63.2418,1928
63.3074,1876
63.3731,1842
63.4387,1880
63.5044,1875
63.57,1940
63.6357,1898
63.7013,1850
63.767,1855
63.8326,1883
63.8983,1858
63.9639,1906
64.0296,1840
64.0952,1850
64.1609,1853
64.2265,1845
64.2922,1844
64.3578,1795
64.4235,1921
64.4891,1864
64.5548,1867
64.6204,1913
64.6861,1873
64.7518,1799
64.8174,1878
64.8831,1815
64.9487,1898
65.0144,1876
65.08,1828
65.1457,1860
65.2113,1870
65.277,1786
65.3426,1854
65.4083,1796
65.4739,1892
65.5396,1856
65.6052,1890
65.6709,1777
65.7365,1864
65.8022,1846
65.8678,1797
65.9335,1868
65.9991,1827
66.0648,1871
66.1304,1772
66.1961,1854
66.2617,1797
66.3274,1885
66.393,1787
66.4587,1825
66.5243,1892
66.59,1830
66.6556,1808
66.7213,1764
66.7869,1862
66.8526,1783
66.9182,1810
66.9839,1757
67.0496,1747
67.1152,1825
67.1809,1807
67.2465,1826
67.3122,1768
67.3778,1786
67.4435,1751
67.5091,1752
67.5748,1847
67.6404,1847
67.7061,1737
67.7717,1775
67.8374,1843
67.903,1856
67.9687,1771
68.0343,1754
68.1,1818
68.1656,1868
68.2313,1756
68.2969,1833
68.3626,1794
68.4282,1777
68.4939,1728
68.5595,1770
68.6252,1826
68.6908,1705
68.7565,1737
68.8221,1727
68.8878,1717
68.9534,1872
69.0191,1746
69.0847,1719
69.1504,1675
69.216,1806
69.2817,1753
69.3474,1711
69.413,1739
69.4787,1811
69.5443,1810
69.61,1842
69.6756,1756
69.7413,1795
69.8069,1789
69.8726,1712
69.9382,1654
70.0039,1768
70.0695,1640
70.1352,1755
70.2008,1735
70.2665,1726
70.3321,1774
70.3978,1755
70.4634,1764
70.5291,1787
70.5947,1774
70.6604,1737
70.726,1820
70.7917,1779
70.8573,1718
70.923,1790
70.9886,1715
71.0543,1755
71.1199,1798
71.1856,1749
71.2512,1718
71.3169,1748
71.3825,1752
71.4482,1730
71.5138,1720
71.5795,1726
71.6451,1691
71.7108,1737
71.7765,1715
71.8421,1690
71.9078,1720
71.9734,1821
72.0391,1808
72.1047,1742
72.1704,1762
72.236,1704
72.3017,1752
72.3673,1763
72.433,1680
72.4986,1715
72.5643,1717
72.6299,1770
72.6956,1735
72.7612,1707
72.8269,1703
72.8925,1642
72.9582,1746
73.0238,1745
73.0895,1695
73.1551,1696
73.2208,1723
73.2864,1697
73.3521,1715
73.4177,1737
73.4834,1775
73.549,1713
73.6147,1687
73.6803,1790
73.746,1697
73.8116,1722
73.8773,1730
73.9429,1686
74.0086,1704
74.0743,1739
74.1399,1708
74.2056,1732
74.2712,1678
74.3369,1763
74.4025,1741
74.4682,1734
74.5338,1650
74.5995,1748
74.6651,1760
74.7308,1717
74.7964,1647
74.8621,1734
74.9277,1679
74.9934,1721
75.059,1689
75.1247,1723
75.1903,1698
75.256,1706
75.3216,1727
75.3873,1633
75.4529,1718
75.5186,1701
75.5842,1734
75.6499,1725
75.7155,1760
75.7812,1655
75.8468,1726
75.9125,1675
75.9781,1732
76.0438,1626
76.1094,1727
76.1751,1691
76.2407,1691
76.3064,1695
76.3721,1751
76.4377,1671
76.5034,1671
76.569,1635
76.6347,1728
76.7003,1686
76.766,1776
76.8316,1682
76.8973,1662
76.9629,1707
77.0286,1656
77.0942,1629
77.1599,1645
77.2255,1651
77.2912,1604
77.3568,1629
77.4225,1673
77.4881,1623
77.5538,1647
77.6194,1741
77.6851,1636
77.7507,1657
77.8164,1696
77.882,1675
77.9477,1676
78.0133,1655
78.079,1631
78.1446,1628
78.2103,1640
78.2759,1759
78.3416,1653
78.4072,1603
78.4729,1640
78.5385,1590
78.6042,1620
78.6699,1697
78.7355,1596
78.8012,1602
78.8668,1614
78.9325,1622
78.9981,1663
79.0638,1685
79.1294,1582
79.1951,1620
79.2607,1558
79.3264,1627
79.392,1661
79.4577,1612
79.5233,1610
79.589,1634
79.6546,1647
79.7203,1584
79.7859,1723
79.8516,1629
79.9172,1587
79.9829,1644
80.0485,1636
80.1142,1631
80.1798,1667
80.2455,1549
80.3111,1637
80.3768,1608
80.4424,1662
80.5081,1698
80.5737,1622
80.6394,1600
80.705,1636
80.7707,1589
80.8363,1541
80.902,1682
80.9677,1615
81.0333,1592
81.099,1641
81.1646,1586
81.2303,1558
81.2959,1566
81.3616,1586
81.4272,1598
81.4929,1538
81.5585,1517
81.6242,1580
81.6898,1622
81.7555,1583
81.8211,1602
81.8868,1615
81.9524,1553
82.0181,1569
82.0837,1577
82.1494,1559
82.215,1577
82.2807,1554
82.3463,1644
82.412,1577
82.4776,1595
82.5433,1556
82.6089,1608
82.6746,1499
82.7402,1570
82.80589,1537
82.8715,1527
82.9372,1609
83.0028,1618
83.0685,1583
83.1341,1543
83.1998,1580
83.2654,1599
83.3311,1610
83.3968,1519
83.4624,1591
83.5281,1577
83.5937,1607
83.6594,1589
83.725,1579
83.7907,1613
83.8563,1528
83.922,1570
83.9876,1609
84.0533,1555
84.1189,1563
84.1846,1624
84.2502,1530
84.3159,1537
84.3815,1524
84.4472,1592
84.5128,1514
84.5785,1457
84.6441,1585
84.7098,1496
84.7754,1614
84.8411,1535
84.9067,1549
84.9724,1606
85.038,1517
85.1037,1574
85.1693,1559
85.235,1603
85.3006,1557
85.3663,1541
85.4319,1565
85.4976,1525
85.5632,1417
85.6289,1582
85.6946,1526
85.7602,1593
85.8259,1477
85.8915,1578
85.9572,1470
86.0228,1545
86.0885,1567
86.1541,1574
86.2198,1478
86.2854,1551
86.3511,1537
86.4167,1539
86.4824,1530
86.548,1591
86.6137,1567
86.6793,1555
86.745,1538
86.8106,1535
86.8763,1560
86.9419,1493
87.0076,1556
87.0732,1514
87.1389,1524
87.2045,1513
87.2702,1531
87.3358,1554
87.4015,1572
87.4671,1518
87.5328,1566
87.5984,1617
87.6641,1558
87.7297,1565
87.7954,1501
87.861,1548
87.9267,1525
87.9924,1561
88.058,1614
88.1237,1606
88.1893,1506
88.255,1538
88.3206,1451
88.3863,1532
88.4519,1505
88.5176,1553
88.5832,1476
88.6489,1466
88.7145,1496
88.7802,1605
88.8458,1570
88.9115,1506
88.9771,1550
89.0428,1468
89.1084,1549
89.1741,1517
89.2397,1513
89.3054,1541
89.371,1462
89.4367,1483
89.5023,1537
89.568,1466
89.6336,1475
89.6993,1570
89.7649,1429
89.8306,1457
89.8962,1489
89.9619,1454
90.0275,1499
90.0932,1546
90.1588,1424
90.2245,1406
90.2902,1449
90.3558,1540
90.4215,1505
90.4871,1508
90.5528,1432
90.6184,1441
90.6841,1480
90.7497,1518
90.8154,1420
90.881,1478
90.9467,1495
91.0123,1501
91.078,1481
91.1436,1444
91.2093,1463
91.2749,1461
91.3406,1430
91.4062,1538
91.4719,1494
91.5375,1391
91.6032,1467
91.6688,1496
91.7345,1460
91.8001,1492
91.8658,1454
91.9314,1487
91.9971,1509
92.0627,1429
92.1284,1475
92.194,1429
92.2597,1458
92.3253,1460
92.391,1548
92.4566,1462
92.5223,1440
92.588,1413
92.6536,1383
92.7193,1482
92.7849,1447
92.8506,1447
92.9162,1485
92.9819,1474
93.0475,1467
93.1132,1461
93.1788,1480
93.2445,1424
93.3101,1470
93.3758,1521
93.4414,1422
93.5071,1444
93.5727,1503
93.6384,1421
93.704,1428
93.7697,1448
93.8353,1474
93.901,1471
93.9666,1463
94.0323,1444
94.0979,1434
94.1636,1432
94.2292,1445
94.2949,1480
94.3605,1452
94.4262,1475
94.4918,1501
94.5575,1476
94.6231,1413
94.6888,1394
94.7544,1485
94.8201,1451
94.8858,1469
94.9514,1457
95.0171,1482
95.0827,1448
95.1484,1466
95.214,1389
95.2797,1415
95.3453,1376
95.411,1437
95.4766,1422
95.5423,1439
95.6079,1433
95.6736,1387
95.7392,1361
95.8049,1404
95.8705,1439
95.9362,1480
96.0018,1506
96.0675,1443
96.1331,1463
96.1988,1439
96.2644,1391
96.3301,1436
96.3957,1531
96.4614,1453
96.527,1406
96.5927,1448
96.6583,1465
96.724,1474
96.7896,1464
96.8553,1421
96.9209,1520
96.9866,1482
97.0522,1431
97.1179,1490
97.1835,1408
97.2492,1444
97.3149,1382
97.3805,1404
97.4462,1479
97.5118,1474
97.5775,1462
97.6431,1376
97.7088,1491
97.7744,1476
97.8401,1357
97.9057,1442
97.9714,1481
98.037,1384
98.1027,1348
98.1683,1424
98.234,1431
98.2996,1427
98.3653,1496
98.4309,1402
98.4966,1499
98.5622,1424
98.6279,1401
98.6935,1430
98.7592,1413
98.8248,1495
98.8905,1437
98.9561,1396
99.0218,1437
99.0874,1463
99.1531,1406
99.2187,1419
99.2844,1455
99.35,1400
99.4157,1434
99.4813,1423
99.547,1377
99.6127,1431
99.6783,1371
99.744,1402
99.8096,1456
99.8753,1404
99.9409,1391
99.9934,1403