File: Year 3/Mossbauer/XRD_CaZn 1V2_raw.csv
Angle,Intensity
5.00897,2713
5.07462,2731
5.14027,2780
5.20592,2848
5.27157,2795
5.33722,2839
5.40287,2839
5.46853,3002
5.53418,3005
5.59983,2979
5.66548,3001
5.73113,3036
5.79678,3072
5.86243,3152
5.92808,3183
5.99374,3171
6.05939,3195
6.12504,3234
6.19069,3306
6.25634,3381
6.32199,3349
6.38764,3362
6.4533,3381
6.51895,3470
6.5846,3456
6.65025,3422
6.7159,3510
6.78155,3572
6.8472,3602
6.91286,3559
6.97851,3640
7.04416,3703
7.10981,3874
7.17546,3836
7.24111,3685
7.30676,3778
7.37242,3758
7.43807,3833
7.50372,3949
7.56937,3872
7.63502,3855
7.70067,3907
7.76632,3949
7.83198,4057
7.89763,3994
7.96328,3934
8.02893,4154
8.09458,4006
8.16023,4182
8.22588,4159
8.29154,4106
8.35719,4240
8.42284,4212
8.48849,4249
8.55414,4229
8.61979,4243
8.68544,4209
8.7511,4313
8.81675,4443
8.8824,4246
8.94805,4523
9.0137,4428
9.07935,4489
9.145,4522
9.21066,4403
9.27631,4651
9.34196,4397
9.40761,4545
9.47326,4614
9.53891,4567
9.60456,4555
9.67022,4762
9.73587,4748
9.80152,4678
9.86717,4819
9.93282,4867
9.99847,4772
10.0641,4836
10.1298,4735
10.1954,4807
10.2611,4740
10.3267,4786
10.3924,4781
10.458,4910
10.5237,4963
10.5893,4948
10.655,4902
10.7206,4842
10.7863,5033
10.8519,4984
10.9176,5027
10.9832,5026
11.0489,5129
11.1145,5091
11.1802,4960
11.2458,5128
11.3115,4954
11.3772,5045
11.4428,5131
11.5085,5130
11.5741,5121
11.6398,5104
11.7054,5133
11.7711,5186
11.8367,5208
11.9024,5277
11.968,5257
12.0337,5244
12.0993,5218
12.165,5490
12.2306,5268
12.2963,5366
12.3619,5333
12.4276,5337
12.4932,5244
12.5589,5447
12.6245,5385
12.6902,5362
12.7558,5380
12.8215,5458
12.8871,5409
12.9528,5365
13.0184,5428
13.0841,5416
13.1497,5524
13.2154,5562
13.281,5410
13.3467,5458
13.4123,5436
13.478,5514
13.5436,5356
13.6093,5521
13.675,5368
13.7406,5337
13.8063,5345
13.8719,5631
13.9376,5516
14.0032,5478
14.0689,5566
14.1345,5642
14.2002,5766
14.2658,5691
14.3315,5614
14.3971,5647
14.4628,5679
14.5284,5718
14.5941,5709
14.6597,5617
14.7254,5819
14.791,5540
14.8567,5677
14.9223,5543
14.988,5741
15.0536,5703
15.1193,5588
15.1849,5673
15.2506,5809
15.3162,5641
15.3819,5706
15.4475,5770
15.5132,5680
15.5788,5704
15.6445,5713
15.7101,5670
15.7758,5634
15.8414,5552
15.9071,5679
15.9728,5784
16.0384,5557
16.1041,5643
16.1697,5779
16.2354,5605
16.301,5614
16.3667,5601
16.4323,5662
16.498,5509
16.5636,5744
16.6293,5590
16.6949,5425
16.7606,5701
16.8262,5597
16.8919,5590
16.9575,5664
17.0232,5542
17.0888,5614
17.1545,5537
17.2201,5502
17.2858,5530
17.3514,5640
17.4171,5466
17.4827,5543
17.5484,5582
17.614,5513
17.6797,5341
17.7453,5471
17.811,5450
17.8766,5411
17.9423,5310
18.0079,5321
18.0736,5418
18.1392,5348
18.2049,5310
18.2706,5344
18.3362,5406
18.4019,5484
18.4675,5433
18.5332,5333
18.5988,5422
18.6645,5322
18.7301,5405
18.7958,5347
18.8614,5372
18.9271,5453
18.9927,5248
19.0584,5297
19.124,5250
19.1897,5392
19.2553,5410
19.321,5249
19.3866,5145
19.4523,5410
19.5179,5162
19.5836,5252
19.6492,5210
19.7149,5308
19.7805,5319
19.8462,5152
19.9118,5211
19.9775,5278
20.0431,5174
20.1088,5182
20.1744,5303
20.2401,5146
20.3057,5107
20.3714,5217
20.437,5074
20.5027,5258
20.5684,5224
20.634,5119
20.6997,5050
20.7653,5135
20.831,5091
20.8966,5005
20.9623,5110
21.0279,5057
21.0936,4959
21.1592,5218
21.2249,5098
21.2905,5131
21.3562,5123
21.4218,5164
21.4875,4944
21.5531,5061
21.6188,5062
21.6844,5031
21.7501,5138
21.8157,4965
21.8814,4943
21.947,4931
22.0127,4992
22.0783,4890
22.144,5014
22.2096,5124
22.2753,5059
22.3409,4952
22.4066,4972
22.4722,4860
22.5379,4988
22.6035,4986
22.6692,4878
22.7348,5018
22.8005,4864
22.8661,4980
22.9318,4946
22.9975,4856
23.0631,4964
23.1288,5100
23.1944,4956
23.2601,5086
23.3257,4959
23.3914,4882
23.457,4885
23.5227,4923
23.5883,4931
23.654,4923
23.7196,4803
23.7853,4824
23.8509,4861
23.9166,4785
23.9822,4883
24.0479,4791
24.1135,4846
24.1792,4873
24.2448,4873
24.3105,4811
24.3761,4925
24.4418,4909
24.5074,4813
24.5731,4998
24.6387,4763
24.7044,4866
24.77,4749
24.8357,4949
24.9013,4843
24.967,4769
25.0326,4721
25.0983,4730
25.1639,4626
25.2296,4672
25.2953,4704
25.3609,4800
25.4266,4687
25.4922,4668
25.5579,4743
25.6235,4756
25.6892,4780
25.7548,4626
25.8205,4654
25.8861,4569
25.9518,4700
26.0174,4719
26.0831,4644
26.1487,4682
26.2144,4716
26.28,4734
26.3457,4714
26.4113,4760
26.477,4610
26.5426,4751
26.6083,4699
26.6739,4625
26.7396,4557
26.8052,4752
26.8709,4651
26.9365,4619
27.0022,4563
27.0678,4699
27.1335,4540
27.1991,4671
27.2648,4625
27.3304,4656
27.3961,4657
27.4617,4544
27.5274,4796
27.5931,4609
27.6587,4592
27.7244,4750
27.79,4590
27.8557,4738
27.9213,4574
27.987,4603
28.0526,4665
28.1183,4572
28.1839,4654
28.2496,4556
28.3152,4542
28.3809,4512
28.4465,4600
28.5122,4519
28.5778,4575
28.6435,4597
28.7091,4606
28.7748,4590
28.8404,4496
28.9061,4620
28.9717,4679
29.0374,4398
29.103,4575
29.1687,4576
29.2343,4447
29.3,4495
29.3656,4517
29.4313,4537
29.4969,4570
29.5626,4601
29.6282,4586
29.6939,4537
29.7595,4492
29.8252,4549
29.8909,4512
29.9565,4675
30.0222,4562
30.0878,4552
30.1535,4567
30.2191,4579
30.2848,4545
30.3504,4541
30.4161,4504
30.4817,4544
30.5474,4588
30.613,4547
30.6787,4564
30.7443,4591
30.81,4419
30.8756,4515
30.9413,4590
31.0069,4521
31.0726,4474
31.1382,4506
31.2039,4513
31.2695,4529
31.3352,4628
31.4008,4598
31.4665,4563
31.5321,4645
31.5978,4692
31.6634,4629
31.7291,4692
31.7947,4511
31.8604,4488
31.926,4633
31.9917,4546
32.0573,4603
32.123,4587
32.1887,4422
32.2543,4490
32.32,4496
32.3856,4511
32.4513,4649
32.5169,4690
32.5826,4524
32.6482,4530
32.7139,4466
32.7795,4493
32.8452,4548
32.9108,4502
32.9765,4542
33.0421,4606
33.1078,4507
33.1734,4588
33.2391,4623
33.3047,4498
33.3704,4641
33.436,4597
33.5017,4566
33.5673,4609
33.633,4564
33.6986,4581
33.7643,4554
33.8299,4581
33.8956,4633
33.9612,4645
34.0269,4534
34.0925,4563
34.1582,4675
34.2238,4581
34.2895,4537
34.3551,4588
34.4208,4511
34.4864,4546
34.5521,4493
34.6178,4490
34.6834,4585
34.7491,4622
34.8147,4555
34.8804,4454
34.946,4578
35.0117,4623
35.0773,4552
35.143,4536
35.2086,4588
35.2743,4555
35.3399,4616
35.4056,4549
35.4712,4469
35.5369,4593
35.6025,4556
35.6682,4536
35.7338,4438
35.7995,4561
35.8651,4683
35.9308,4518
35.9964,4517
36.0621,4539
36.1277,4462
36.1934,4546
36.259,4596
36.3247,4437
36.3903,4691
36.456,4533
36.5216,4560
36.5873,4614
36.6529,4679
36.7186,4557
36.7842,4395
36.8499,4492
36.9156,4488
36.9812,4454
37.0469,4518
37.1125,4584
37.1782,4415
37.2438,4491
37.3095,4529
37.3751,4454
37.4408,4406
37.5064,4412
37.5721,4326
37.6377,4504
37.7034,4372
37.769,4393
37.8347,4301
37.9003,4338
37.966,4351
38.0316,4544
38.0973,4436
38.1629,4305
38.2286,4512
38.2942,4306
38.3599,4331
38.4255,4219
38.4912,4287
38.5568,4277
38.6225,4246
38.6881,4239
38.7538,4276
38.8194,4272
38.8851,4244
38.9507,4206
39.0164,4152
39.082,4142
39.1477,4358
39.2134,4225
39.279,4073
39.3447,4232
39.4103,4224
39.476,4090
39.5416,4188
39.6073,4124
39.6729,4178
39.7386,4154
39.8042,4094
39.8699,4080
39.9355,4115
40.0012,4082
40.0668,3899
40.1325,4052
40.1981,4028
40.2638,4101
40.3294,4160
40.3951,4037
40.4607,4107
40.5264,4118
40.592,4063
40.6577,4131
40.7233,4127
40.789,3925
40.8546,3985
40.9203,4107
40.9859,4028
41.0516,4008
41.1172,3913
41.1829,3999
41.2485,3895
41.3142,3974
41.3798,3932
41.4455,3972
41.5112,3901
41.5768,4006
41.6425,3919
41.7081,3880
41.7738,3918
41.8394,3860
41.9051,3959
41.9707,3868
42.0364,3823
42.102,3860
42.1677,3803
42.2333,3823
42.299,3860
42.3646,3787
42.4303,3822
42.4959,3803
42.5616,3793
42.6272,3800
42.6929,3709
42.7585,3711
42.8242,3787
42.8898,3719
42.9555,3741
43.0211,3764
43.0868,3788
43.1524,3755
43.2181,3660
43.2837,3648
43.3494,3735
43.415,3693
43.4807,3616
43.5463,3648
43.612,3573
43.6776,3672
43.7433,3585
43.809,3549
43.8746,3577
43.9403,3561
44.0059,3567
44.0716,3564
44.1372,3574
44.2029,3505
44.2685,3496
44.3342,3523
44.3998,3430
44.4655,3453
44.5311,3433
44.5968,3524
44.6624,3455
44.7281,3424
44.7937,3490
44.8594,3534
44.925,3432
44.9907,3486
45.0563,3453
45.122,3398
45.1876,3551
45.2533,3414
45.3189,3323
45.3846,3453
45.4502,3418
45.5159,3337
45.5815,3455
45.6472,3451
45.7128,3395
45.7785,3346
45.8441,3394
45.9098,3430
45.9754,3311
46.0411,3249
46.1067,3400
46.1724,3488
46.2381,3419
46.3037,3485
46.3694,3358
46.435,3383
46.5007,3345
46.5663,3372
46.632,3307
46.6976,3420
46.7633,3294
46.8289,3287
46.8946,3341
46.9602,3365
47.0259,3268
47.0915,3389
47.1572,3363
47.2228,3306
47.2885,3332
47.3541,3352
47.4198,3283
47.4854,3315
47.5511,3376
47.6167,3327
47.6824,3377
47.748,3449
47.8137,3351
47.8793,3321
47.945,3301
48.0106,3408
48.0763,3429
48.1419,3253
48.2076,3229
48.2732,3423
48.3389,3320
48.4045,3312
48.4702,3271
48.5359,3239
48.6015,3228
48.6672,3243
48.7328,3274
48.7985,3237
48.8641,3284
48.9298,3363
48.9954,3307
49.0611,3312
49.1267,3276
49.1924,3211
49.258,3277
49.3237,3285
49.3893,3399
49.455,3308
49.5206,3201
49.5863,3323
49.6519,3244
49.7176,3307
49.7832,3265
49.8489,3233
49.9145,3302
49.9802,3297
50.0458,3237
50.1115,3208
50.1771,3147
50.2428,3237
50.3084,3250
50.3741,3236
50.4397,3300
50.5054,3215
50.571,3133
50.6367,3166
50.7023,3191
50.768,3119
50.8337,3167
50.8993,3258
50.965,3215
51.0306,3151
51.0963,3218
51.1619,3051
51.2276,3215
51.2932,3197
51.3589,3215
51.4245,3218
51.4902,3215
51.5558,3294
51.6215,3155
51.6871,3285
51.7528,3143
51.8184,3188
51.8841,3226
51.9497,3094
52.0154,3201
52.081,3182
52.1467,3158
52.2123,3173
52.278,3272
52.3436,3138
52.4093,3176
52.4749,3146
52.5406,3061
52.6062,3078
52.6719,3149
52.7375,3119
52.8032,3052
52.8688,3147
52.9345,3109
53.0001,3129
53.0658,3163
53.1315,3092
53.1971,3008
53.2628,3167
53.3284,3084
53.3941,3071
53.4597,3152
53.5254,3126
53.591,3171
53.6567,3126
53.7223,2962
53.788,3069
53.8536,3081
53.9193,3009
53.9849,3081
54.0506,3097
54.1162,3018
54.1819,3106
54.2475,3118
54.3132,3069
54.3788,2989
54.4445,3123
54.5101,2974
54.5758,3055
54.6414,3045
54.7071,2968
54.7727,2974
54.8384,2926
54.904,3025
54.9697,3063
55.0353,2949
55.101,2987
55.1666,3028
55.2323,3041
55.2979,2991
55.3636,3038
55.4293,3072
55.4949,2934
55.5606,2845
55.6262,3024
55.6919,2983
55.7575,2896
55.8232,2852
55.8888,2947
55.9545,2937
56.0201,3071
56.0858,2919
56.1514,2935
56.2171,2965
56.2827,3039
56.3484,2922
56.414,2972
56.4797,2949
56.5453,2944
56.611,2998
56.6766,2986
56.7423,2966
56.8079,2913
56.8736,3004
56.9392,2986
57.0049,2922
57.0705,2998
57.1362,3024
57.2018,2883
57.2675,2877
57.3331,2961
57.3988,2922
57.4644,3039
57.5301,2895
57.5957,2964
57.6614,2950
57.7271,2798
57.7927,2846
57.8584,2824
57.924,2892
57.9897,2830
58.0553,2915
58.121,2952
58.1866,2830
58.2523,2836
58.3179,2819
58.3836,2944
58.4492,2907
58.5149,2922
58.5805,2875
58.6462,2866
58.7118,2850
58.7775,2862
58.8431,2839
58.9088,2710
58.9744,2843
59.0401,2847
59.1057,2872
59.1714,2883
59.237,2916
59.3027,2751
59.3683,2807
59.434,2809
59.4996,2757
59.5653,2846
59.6309,2851
59.6966,2788
59.7622,2838
59.8279,2769
59.8935,2790
59.9592,2754
60.0248,2748
60.0905,2788
60.1562,2803
60.2218,2683
60.2875,2697
60.3531,2833
60.4188,2753
60.4844,2845
60.5501,2799
60.6157,2813
60.6814,2777
60.747,2781
60.8127,2732
60.8783,2758
60.944,2793
61.0096,2640
61.0753,2812
61.1409,2789
61.2066,2722
61.2722,2801
61.3379,2612
61.4035,2764
61.4692,2626
61.5348,2676
61.6005,2700
61.6661,2720
61.7318,2655
61.7974,2697
61.8631,2708
61.9287,2727
61.9944,2604
62.06,2722
62.1257,2627
62.1913,2770
62.257,2633
62.3226,2710
62.3883,2710
62.454,2612
62.5196,2623
62.5853,2601
62.6509,2696
62.7166,2715
62.7822,2688
62.8479,2707
62.9135,2658
62.9792,2678
63.0448,2698
63.1105,2675
63.1761,2649
63.2418,2605
63.3074,2624
63.3731,2684
63.4387,2641
63.5044,2690
63.57,2598
63.6357,2573
63.7013,2676
63.767,2635
63.8326,2677
63.8983,2714
63.9639,2661
64.0296,2707
64.0952,2721
64.1609,2559
64.2265,2756
64.2922,2704
64.3578,2578
64.4235,2579
64.4891,2600
64.5548,2549
64.6204,2587
64.6861,2515
64.7518,2552
64.8174,2577
64.8831,2580
64.9487,2478
65.0144,2528
65.08,2505
65.1457,2552
65.2113,2502
65.277,2647
65.3426,2625
65.4083,2544
65.4739,2648
65.5396,2576
65.6052,2632
65.6709,2543
65.7365,2483
65.8022,2491
65.8678,2533
65.9335,2460
65.9991,2541
66.0648,2482
66.1304,2592
66.1961,2538
66.2617,2516
66.3274,2550
66.393,2527
66.4587,2492
66.5243,2540
66.59,2546
66.6556,2553
66.7213,2550
66.7869,2522
66.8526,2574
66.9182,2490
66.9839,2541
67.0496,2533
67.1152,2561
67.1809,2505
67.2465,2568
67.3122,2543
67.3778,2515
67.4435,2493
67.5091,2543
67.5748,2450
67.6404,2591
67.7061,2466
67.7717,2502
67.8374,2543
67.903,2542
67.9687,2446
68.0343,2421
68.1,2502
68.1656,2474
68.2313,2498
68.2969,2386
68.3626,2462
68.4282,2535
68.4939,2443
68.5595,2452
68.6252,2479
68.6908,2515
68.7565,2430
68.8221,2529
68.8878,2560
68.9534,2501
69.0191,2490
69.0847,2426
69.1504,2419
69.216,2450
69.2817,2453
69.3474,2511
69.413,2385
69.4787,2411
69.5443,2440
69.61,2449
69.6756,2414
69.7413,2469
69.8069,2456
69.8726,2336
69.9382,2353
70.0039,2393
70.0695,2259
70.1352,2437
70.2008,2397
70.2665,2372
70.3321,2493
70.3978,2436
70.4634,2372
70.5291,2389
70.5947,2479
70.6604,2389
70.726,2383
70.7917,2325
70.8573,2432
70.923,2367
70.9886,2458
71.0543,2391
71.1199,2370
71.1856,2398
71.2512,2439
71.3169,2513
71.3825,2321
71.4482,2358
71.5138,2374
71.5795,2422
71.6451,2371
71.7108,2455
71.7765,2384
71.8421,2366
71.9078,2430
71.9734,2338
72.0391,2395
72.1047,2366
72.1704,2318
72.236,2420
72.3017,2327
72.3673,2339
72.433,2294
72.4986,2333
72.5643,2406
72.6299,2261
72.6956,2286
72.7612,2369
72.8269,2307
72.8925,2364
72.9582,2278
73.0238,2387
73.0895,2343
73.1551,2424
73.2208,2369
73.2864,2322
73.3521,2347
73.4177,2297
73.4834,2347
73.549,2369
73.6147,2335
73.6803,2306
73.746,2266
73.8116,2296
73.8773,2317
73.9429,2381
74.0086,2325
74.0743,2220
74.1399,2360
74.2056,2295
74.2712,2275
74.3369,2356
74.4025,2225
74.4682,2280
74.5338,2271
74.5995,2315
74.6651,2218
74.7308,2326
74.7964,2185
74.8621,2164
74.9277,2273
74.9934,2223
75.059,2317
75.1247,2278
75.1903,2303
75.256,2280
75.3216,2239
75.3873,2273
75.4529,2267
75.5186,2274
75.5842,2308
75.6499,2197
75.7155,2298
75.7812,2248
75.8468,2318
75.9125,2245
75.9781,2261
76.0438,2296
76.1094,2316
76.1751,2254
76.2407,2158
76.3064,2286
76.3721,2129
76.4377,2173
76.5034,2219
76.569,2234
76.6347,2223
76.7003,2214
76.766,2248
76.8316,2212
76.8973,2226
76.9629,2145
77.0286,2225
77.0942,2248
77.1599,2288
77.2255,2244
77.2912,2249
77.3568,2168
77.4225,2254
77.4881,2211
77.5538,2188
77.6194,2122
77.6851,2145
77.7507,2186
77.8164,2155
77.882,2189
77.9477,2201
78.0133,2097
78.079,2266
78.1446,2208
78.2103,2251
78.2759,2183
78.3416,2325
78.4072,2150
78.4729,2279
78.5385,2235
78.6042,2231
78.6699,2195
78.7355,2188
78.8012,2135
78.8668,2296
78.9325,2155
78.9981,2138
79.0638,2199
79.1294,2224
79.1951,2166
79.2607,2281
79.3264,2254
79.392,2138
79.4577,2254
79.5233,2145
79.589,2229
79.6546,2255
79.7203,2173
79.7859,2177
79.8516,2163
79.9172,2215
79.9829,2271
80.0485,2149
80.1142,2316
80.1798,2214
80.2455,2122
80.3111,2177
80.3768,2166
80.4424,2217
80.5081,2188
80.5737,2129
80.6394,2132
80.705,2092
80.7707,2146
80.8363,2154
80.902,2140
80.9677,2182
81.0333,2248
81.099,2286
81.1646,2092
81.2303,2123
81.2959,2065
81.3616,2115
81.4272,2148
81.4929,2112
81.5585,2044
81.6242,2159
81.6898,2186
81.7555,2113
81.8211,2156
81.8868,2176
81.9524,2211
82.0181,2086
82.0837,2133
82.1494,2157
82.215,2076
82.2807,2212
82.3463,2187
82.412,2096
82.4776,2070
82.5433,2112
82.6089,2087
82.6746,2123
82.7402,2139
82.80589,2130
82.8715,2125
82.9372,2080
83.0028,2035
83.0685,2092
83.1341,2111
83.1998,2170
83.2654,2100
83.3311,2068
83.3968,2152
83.4624,2122
83.5281,2156
83.5937,2077
83.6594,2057
83.725,2154
83.7907,2114
83.8563,2054
83.922,2134
83.9876,2097
84.0533,2092
84.1189,2111
84.1846,2137
84.2502,2188
84.3159,2166
84.3815,2145
84.4472,2131
84.5128,2044
84.5785,2075
84.6441,2086
84.7098,2085
84.7754,2039
84.8411,2097
84.9067,2156
84.9724,2140
85.038,2119
85.1037,2131
85.1693,2107
85.235,1972
85.3006,1993
85.3663,2168
85.4319,2030
85.4976,2061
85.5632,2112
85.6289,2025
85.6946,2090
85.7602,2120
85.8259,2109
85.8915,2070
85.9572,2091
86.0228,2034
86.0885,2056
86.1541,2095
86.2198,2121
86.2854,2142
86.3511,2145
86.4167,2150
86.4824,2011
86.548,2047
86.6137,2104
86.6793,2087
86.745,2064
86.8106,2126
86.8763,2132
86.9419,2131
87.0076,2049
87.0732,2103
87.1389,2052
87.2045,2047
87.2702,2131
87.3358,2034
87.4015,2068
87.4671,2067
87.5328,2096
87.5984,2116
87.6641,1997
87.7297,2077
87.7954,2146
87.861,2105
87.9267,2054
87.9924,2065
88.058,2074
88.1237,2102
88.1893,2030
88.255,2069
88.3206,1991
88.3863,2122
88.4519,2029
88.5176,2078
88.5832,2026
88.6489,2011
88.7145,2044
88.7802,2042
88.8458,2021
88.9115,2131
88.9771,2010
89.0428,2098
89.1084,2008
89.1741,2068
89.2397,2093
89.3054,1994
89.371,2061
89.4367,2077
89.5023,2106
89.568,2088
89.6336,2043
89.6993,2072
89.7649,2039
89.8306,2011
89.8962,2174
89.9619,2148
90.0275,2051
90.0932,2088
90.1588,2077
90.2245,2024
90.2902,2049
90.3558,2059
90.4215,2025
90.4871,1996
90.5528,2079
90.6184,2082
90.6841,2072
90.7497,2140
90.8154,2032
90.881,2074
90.9467,2080
91.0123,2124
91.078,2119
91.1436,2035
91.2093,2017
91.2749,2054
91.3406,2051
91.4062,2079
91.4719,1994
91.5375,2029
91.6032,2066
91.6688,1987
91.7345,1978
91.8001,2087
91.8658,1970
91.9314,2018
91.9971,2076
92.0627,2107
92.1284,2043
92.194,2080
92.2597,2026
92.3253,1995
92.391,2093
92.4566,2051
92.5223,2036
92.588,2080
92.6536,2057
92.7193,2110
92.7849,1940
92.8506,2075
92.9162,1935
92.9819,2044
93.0475,2167
93.1132,2013
93.1788,2069
93.2445,2054
93.3101,2059
93.3758,2025
93.4414,2015
93.5071,2135
93.5727,1990
93.6384,2006
93.704,2090
93.7697,2043
93.8353,2069
93.901,2039
93.9666,2037
94.0323,2091
94.0979,2018
94.1636,2015
94.2292,2044
94.2949,2023
94.3605,1989
94.4262,1970
94.4918,2027
94.5575,2071
94.6231,2051
94.6888,2016
94.7544,2094
94.8201,2034
94.8858,2004
94.9514,2019
95.0171,1976
95.0827,2022
95.1484,1980
95.214,2045
95.2797,2041
95.3453,1994
95.411,1938
95.4766,2075
95.5423,2032
95.6079,1996
95.6736,1926
95.7392,2037
95.8049,2000
95.8705,1999
95.9362,2032
96.0018,2024
96.0675,2039
96.1331,1954
96.1988,2076
96.2644,2067
96.3301,2078
96.3957,2024
96.4614,2072
96.527,2036
96.5927,2015
96.6583,1951
96.724,1947
96.7896,1998
96.8553,2056
96.9209,1995
96.9866,1998
97.0522,2046
97.1179,1949
97.1835,1990
97.2492,2042
97.3149,2016
97.3805,2097
97.4462,2039
97.5118,2009
97.5775,1999
97.6431,2075
97.7088,2075
97.7744,1978
97.8401,2044
97.9057,1990
97.9714,2085
98.037,2007
98.1027,2006
98.1683,2004
98.234,2061
98.2996,1966
98.3653,2052
98.4309,1977
98.4966,1990
98.5622,2010
98.6279,2082
98.6935,1968
98.7592,2040
98.8248,2051
98.8905,2086
98.9561,2074
99.0218,2020
99.0874,2025
99.1531,2036
99.2187,2044
99.2844,2002
99.35,1964
99.4157,2073
99.4813,2008
99.547,1952
99.6127,2048
99.6783,2033
99.744,1992
99.8096,1970
99.8753,2008
99.9409,2008
99.9934,2026