File: Year 3/Mossbauer/XRD_SLS4_raw.csv
Angle,Intensity
5.00897,3058
5.07462,3023
5.14027,3134
5.20592,3161
5.27157,3248
5.33722,3293
5.40287,3364
5.46853,3290
5.53418,3337
5.59983,3320
5.66548,3373
5.73113,3526
5.79678,3451
5.86243,3591
5.92808,3646
5.99374,3662
6.05939,3706
6.12504,3870
6.19069,3707
6.25634,3940
6.32199,3993
6.38764,3980
6.4533,3828
6.51895,4051
6.5846,4080
6.65025,4047
6.7159,4027
6.78155,4072
6.8472,4143
6.91286,4356
6.97851,4257
7.04416,4227
7.10981,4290
7.17546,4226
7.24111,4319
7.30676,4407
7.37242,4431
7.43807,4489
7.50372,4492
7.56937,4515
7.63502,4659
7.70067,4683
7.76632,4607
7.83198,4666
7.89763,4603
7.96328,4642
8.02893,4801
8.09458,4804
8.16023,4820
8.22588,4930
8.29154,4933
8.35719,4980
8.42284,4940
8.48849,5132
8.55414,5040
8.61979,5023
8.68544,5110
8.7511,5135
8.81675,5197
8.8824,5233
8.94805,5265
9.0137,5333
9.07935,5409
9.145,5317
9.21066,5372
9.27631,5266
9.34196,5395
9.40761,5486
9.47326,5452
9.53891,5540
9.60456,5483
9.67022,5622
9.73587,5571
9.80152,5577
9.86717,5646
9.93282,5642
9.99847,5764
10.0641,5604
10.1298,5750
10.1954,5618
10.2611,5595
10.3267,5542
10.3924,5736
10.458,5759
10.5237,5829
10.5893,5819
10.655,5802
10.7206,5870
10.7863,5909
10.8519,5732
10.9176,5900
10.9832,5938
11.0489,5930
11.1145,5833
11.1802,5972
11.2458,6001
11.3115,6007
11.3772,5905
11.4428,6046
11.5085,5945
11.5741,6121
11.6398,6106
11.7054,6101
11.7711,6104
11.8367,6051
11.9024,5963
11.968,6036
12.0337,6190
12.0993,6160
12.165,6128
12.2306,6158
12.2963,6014
12.3619,6151
12.4276,6135
12.4932,6079
12.5589,6132
12.6245,6209
12.6902,6284
12.7558,6355
12.8215,6215
12.8871,6304
12.9528,6099
13.0184,6217
13.0841,6297
13.1497,6270
13.2154,6366
13.281,6246
13.3467,6398
13.4123,6340
13.478,6222
13.5436,6246
13.6093,6328
13.675,6325
13.7406,6429
13.8063,6424
13.8719,6234
13.9376,6318
14.0032,6403
14.0689,6298
14.1345,6373
14.2002,6260
14.2658,6381
14.3315,6436
14.3971,6432
14.4628,6520
14.5284,6389
14.5941,6420
14.6597,6630
14.7254,6562
14.791,6382
14.8567,6380
14.9223,6266
14.988,6423
15.0536,6497
15.1193,6587
15.1849,6580
15.2506,6525
15.3162,6666
15.3819,6533
15.4475,6366
15.5132,6615
15.5788,6498
15.6445,6450
15.7101,6494
15.7758,6437
15.8414,6496
15.9071,6404
15.9728,6532
16.0384,6541
16.1041,6488
16.1697,6507
16.2354,6371
16.301,6419
16.3667,6377
16.4323,6502
16.498,6493
16.5636,6660
16.6293,6315
16.6949,6521
16.7606,6579
16.8262,6493
16.8919,6455
16.9575,6591
17.0232,6350
17.0888,6354
17.1545,6461
17.2201,6328
17.2858,6370
17.3514,6462
17.4171,6403
17.4827,6457
17.5484,6293
17.614,6363
17.6797,6393
17.7453,6270
17.811,6347
17.8766,6326
17.9423,6204
18.0079,6308
18.0736,6303
18.1392,6172
18.2049,6206
18.2706,6188
18.3362,6334
18.4019,6199
18.4675,6150
18.5332,6274
18.5988,6179
18.6645,6329
18.7301,6278
18.7958,6168
18.8614,6079
18.9271,6235
18.9927,6307
19.0584,6164
19.124,6280
19.1897,6233
19.2553,6357
19.321,6080
19.3866,6137
19.4523,6185
19.5179,6209
19.5836,6254
19.6492,6152
19.7149,6344
19.7805,6181
19.8462,6155
19.9118,6117
19.9775,6218
20.0431,6252
20.1088,6171
20.1744,6201
20.2401,6257
20.3057,6178
20.3714,6069
20.437,6132
20.5027,6060
20.5684,6145
20.634,6255
20.6997,6201
20.7653,6238
20.831,6124
20.8966,6223
20.9623,6123
21.0279,6162
21.0936,6155
21.1592,6127
21.2249,6254
21.2905,6122
21.3562,6188
21.4218,6213
21.4875,6154
21.5531,6259
21.6188,6321
21.6844,6204
21.7501,6081
21.8157,6185
21.8814,6118
21.947,6224
22.0127,6268
22.0783,6198
22.144,6350
22.2096,6338
22.2753,6279
22.3409,6255
22.4066,6356
22.4722,6206
22.5379,6242
22.6035,6307
22.6692,6275
22.7348,6224
22.8005,6152
22.8661,6273
22.9318,6173
22.9975,6315
23.0631,6235
23.1288,6315
23.1944,6130
23.2601,6276
23.3257,6237
23.3914,6402
23.457,6343
23.5227,6417
23.5883,6133
23.654,6185
23.7196,6407
23.7853,6217
23.8509,6326
23.9166,6323
23.9822,6413
24.0479,6224
24.1135,6398
24.1792,6236
24.2448,6348
24.3105,6327
24.3761,6410
24.4418,6382
24.5074,6389
24.5731,6276
24.6387,6174
24.7044,6313
24.77,6428
24.8357,6347
24.9013,6324
24.967,6349
25.0326,6284
25.0983,6408
25.1639,6392
25.2296,6397
25.2953,6302
25.3609,6338
25.4266,6254
25.4922,6244
25.5579,6368
25.6235,6385
25.6892,6293
25.7548,6374
25.8205,6173
25.8861,6428
25.9518,6179
26.0174,6223
26.0831,6236
26.1487,6346
26.2144,6364
26.28,6338
26.3457,6221
26.4113,6377
26.477,6320
26.5426,6297
26.6083,6381
26.6739,6270
26.7396,6397
26.8052,6232
26.8709,6234
26.9365,6470
27.0022,6315
27.0678,6430
27.1335,6389
27.1991,6251
27.2648,6336
27.3304,6239
27.3961,6418
27.4617,6220
27.5274,6313
27.5931,6291
27.6587,6227
27.7244,6339
27.79,6144
27.8557,6218
27.9213,6198
27.987,6153
28.0526,6350
28.1183,6190
28.1839,6125
28.2496,6141
28.3152,6231
28.3809,6240
28.4465,6226
28.5122,6253
28.5778,6206
28.6435,6238
28.7091,6058
28.7748,6067
28.8404,6034
28.9061,6099
28.9717,6132
29.0374,5960
29.103,6100
29.1687,6085
29.2343,6138
29.3,6228
29.3656,6068
29.4313,6165
29.4969,6103
29.5626,6137
29.6282,6037
29.6939,6075
29.7595,5892
29.8252,6167
29.8909,5950
29.9565,5942
30.0222,5947
30.0878,6022
30.1535,5994
30.2191,6144
30.2848,5748
30.3504,5856
30.4161,5875
30.4817,5768
30.5474,5707
30.613,5988
30.6787,5929
30.7443,5837
30.81,5984
30.8756,5970
30.9413,6058
31.0069,6122
31.0726,6057
31.1382,5926
31.2039,5796
31.2695,5883
31.3352,5741
31.4008,5729
31.4665,5781
31.5321,5689
31.5978,5737
31.6634,5847
31.7291,5778
31.7947,5635
31.8604,5844
31.926,5630
31.9917,5624
32.0573,5657
32.123,5683
32.1887,5569
32.2543,5818
32.32,5708
32.3856,5736
32.4513,5639
32.5169,5691
32.5826,5652
32.6482,5585
32.7139,5544
32.7795,5434
32.8452,5441
32.9108,5501
32.9765,5602
33.0421,5545
33.1078,5613
33.1734,5351
33.2391,5488
33.3047,5584
33.3704,5361
33.436,5437
33.5017,5554
33.5673,5402
33.633,5379
33.6986,5391
33.7643,5445
33.8299,5394
33.8956,5395
33.9612,5453
34.0269,5351
34.0925,5428
34.1582,5281
34.2238,5382
34.2895,5234
34.3551,5192
34.4208,5326
34.4864,5305
34.5521,5284
34.6178,5327
34.6834,5294
34.7491,5285
34.8147,5180
34.8804,5283
34.946,5326
35.0117,5337
35.0773,5195
35.143,5125
35.2086,5154
35.2743,5168
35.3399,5178
35.4056,5183
35.4712,5079
35.5369,5215
35.6025,5182
35.6682,5293
35.7338,5184
35.7995,5286
35.8651,5113
35.9308,5088
35.9964,5045
36.0621,5017
36.1277,5060
36.1934,5034
36.259,4955
36.3247,5079
36.3903,5102
36.456,5051
36.5216,5041
36.5873,5116
36.6529,5126
36.7186,5098
36.7842,5140
36.8499,5098
36.9156,5114
36.9812,4931
37.0469,4960
37.1125,4921
37.1782,4967
37.2438,4879
37.3095,4937
37.3751,4918
37.4408,4916
37.5064,4895
37.5721,4904
37.6377,4896
37.7034,4863
37.769,4808
37.8347,4736
37.9003,4719
37.966,4772
38.0316,4755
38.0973,4693
38.1629,4749
38.2286,4757
38.2942,4779
38.3599,4671
38.4255,4663
38.4912,4698
38.5568,4620
38.6225,4733
38.6881,4683
38.7538,4591
38.8194,4624
38.8851,4652
38.9507,4503
39.0164,4678
39.082,4792
39.1477,4697
39.2134,4607
39.279,4477
39.3447,4572
39.4103,4589
39.476,4656
39.5416,4398
39.6073,4414
39.6729,4392
39.7386,4601
39.8042,4434
39.8699,4419
39.9355,4430
40.0012,4462
40.0668,4408
40.1325,4453
40.1981,4523
40.2638,4351
40.3294,4256
40.3951,4291
40.4607,4498
40.5264,4284
40.592,4322
40.6577,4334
40.7233,4395
40.789,4474
40.8546,4495
40.9203,4343
40.9859,4312
41.0516,4326
41.1172,4324
41.1829,4208
41.2485,4373
41.3142,4402
41.3798,4364
41.4455,4287
41.5112,4372
41.5768,4273
41.6425,4429
41.7081,4494
41.7738,4311
41.8394,4336
41.9051,4186
41.9707,4300
42.0364,4190
42.102,4211
42.1677,4332
42.2333,4222
42.299,4113
42.3646,4102
42.4303,4210
42.4959,4063
42.5616,4143
42.6272,3996
42.6929,4079
42.7585,4174
42.8242,4013
42.8898,4094
42.9555,4063
43.0211,4105
43.0868,3976
43.1524,4038
43.2181,3942
43.2837,4007
43.3494,3958
43.415,3850
43.4807,3880
43.5463,3969
43.612,3847
43.6776,3969
43.7433,3993
43.809,3822
43.8746,3895
43.9403,3999
44.0059,3911
44.0716,3886
44.1372,3882
44.2029,3974
44.2685,3843
44.3342,3989
44.3998,3804
44.4655,3841
44.5311,3765
44.5968,3850
44.6624,3875
44.7281,3881
44.7937,3822
44.8594,3714
44.925,3830
44.9907,3702
45.0563,3817
45.122,3791
45.1876,3787
45.2533,3712
45.3189,3839
45.3846,3730
45.4502,3789
45.5159,3749
45.5815,3763
45.6472,3747
45.7128,3835
45.7785,3830
45.8441,3661
45.9098,3728
45.9754,3770
46.0411,3620
46.1067,3731
46.1724,3787
46.2381,3667
46.3037,3690
46.3694,3780
46.435,3778
46.5007,3761
46.5663,3709
46.632,3838
46.6976,3807
46.7633,3700
46.8289,3695
46.8946,3672
46.9602,3818
47.0259,3779
47.0915,3832
47.1572,3788
47.2228,3681
47.2885,3736
47.3541,3656
47.4198,3763
47.4854,3724
47.5511,3742
47.6167,3665
47.6824,3717
47.748,3665
47.8137,3602
47.8793,3635
47.945,3719
48.0106,3703
48.0763,3745
48.1419,3664
48.2076,3762
48.2732,3630
48.3389,3688
48.4045,3681
48.4702,3680
48.5359,3651
48.6015,3595
48.6672,3599
48.7328,3715
48.7985,3601
48.8641,3601
48.9298,3612
48.9954,3635
49.0611,3577
49.1267,3650
49.1924,3550
49.258,3473
49.3237,3683
49.3893,3685
49.455,3590
49.5206,3593
49.5863,3681
49.6519,3574
49.7176,3458
49.7832,3562
49.8489,3546
49.9145,3591
49.9802,3583
50.0458,3597
50.1115,3491
50.1771,3656
50.2428,3625
50.3084,3660
50.3741,3547
50.4397,3602
50.5054,3557
50.571,3615
50.6367,3561
50.7023,3591
50.768,3545
50.8337,3600
50.8993,3439
50.965,3575
51.0306,3620
51.0963,3612
51.1619,3570
51.2276,3508
51.2932,3512
51.3589,3665
51.4245,3568
51.4902,3518
51.5558,3461
51.6215,3577
51.6871,3612
51.7528,3581
51.8184,3535
51.8841,3470
51.9497,3460
52.0154,3587
52.081,3465
52.1467,3490
52.2123,3545
52.278,3453
52.3436,3618
52.4093,3592
52.4749,3410
52.5406,3399
52.6062,3484
52.6719,3552
52.7375,3298
52.8032,3500
52.8688,3412
52.9345,3444
53.0001,3408
53.0658,3401
53.1315,3445
53.1971,3449
53.2628,3395
53.3284,3483
53.3941,3453
53.4597,3438
53.5254,3428
53.591,3420
53.6567,3511
53.7223,3316
53.788,3484
53.8536,3414
53.9193,3452
53.9849,3532
54.0506,3452
54.1162,3423
54.1819,3359
54.2475,3329
54.3132,3512
54.3788,3321
54.4445,3514
54.5101,3310
54.5758,3363
54.6414,3370
54.7071,3502
54.7727,3385
54.8384,3397
54.904,3377
54.9697,3387
55.0353,3368
55.101,3403
55.1666,3344
55.2323,3324
55.2979,3324
55.3636,3459
55.4293,3417
55.4949,3417
55.5606,3352
55.6262,3338
55.6919,3374
55.7575,3391
55.8232,3240
55.8888,3293
55.9545,3411
56.0201,3347
56.0858,3383
56.1514,3306
56.2171,3371
56.2827,3437
56.3484,3361
56.414,3488
56.4797,3425
56.5453,3470
56.611,3382
56.6766,3501
56.7423,3436
56.8079,3360
56.8736,3416
56.9392,3427
57.0049,3434
57.0705,3440
57.1362,3283
57.2018,3277
57.2675,3303
57.3331,3341
57.3988,3266
57.4644,3327
57.5301,3346
57.5957,3328
57.6614,3279
57.7271,3331
57.7927,3259
57.8584,3251
57.924,3304
57.9897,3224
58.0553,3204
58.121,3217
58.1866,3201
58.2523,3251
58.3179,3246
58.3836,3214
58.4492,3194
58.5149,3289
58.5805,3254
58.6462,3213
58.7118,3332
58.7775,3124
58.8431,3360
58.9088,3226
58.9744,3190
59.0401,3236
59.1057,3197
59.1714,3217
59.237,3135
59.3027,3270
59.3683,3200
59.434,3258
59.4996,3240
59.5653,3267
59.6309,3240
59.6966,3169
59.7622,3242
59.8279,3140
59.8935,3167
59.9592,3207
60.0248,3101
60.0905,3186
60.1562,3136
60.2218,3181
60.2875,3336
60.3531,3098
60.4188,3206
60.4844,3120
60.5501,3082
60.6157,3159
60.6814,3138
60.747,3103
60.8127,3249
60.8783,3184
60.944,3170
61.0096,3216
61.0753,3178
61.1409,2995
61.2066,3143
61.2722,3168
61.3379,3139
61.4035,3186
61.4692,3046
61.5348,3107
61.6005,3218
61.6661,3312
61.7318,3126
61.7974,3006
61.8631,3170
61.9287,3171
61.9944,3117
62.06,3121
62.1257,3154
62.1913,3127
62.257,3086
62.3226,3152
62.3883,3093
62.454,3025
62.5196,3098
62.5853,3101
62.6509,3021
62.7166,3067
62.7822,3142
62.8479,3076
62.9135,3123
62.9792,3180
63.0448,3095
63.1105,3200
63.1761,3164
63.2418,3112
63.3074,3253
63.3731,3178
63.4387,3103
63.5044,3029
63.57,2989
63.6357,3138
63.7013,3148
63.767,3152
63.8326,3068
63.8983,3117
63.9639,3087
64.0296,3130
64.0952,3088
64.1609,3024
64.2265,3146
64.2922,3157
64.3578,3153
64.4235,3133
64.4891,3223
64.5548,3228
64.6204,3186
64.6861,3255
64.7518,3014
64.8174,3147
64.8831,3066
64.9487,3061
65.0144,3090
65.08,3120
65.1457,3165
65.2113,3069
65.277,3061
65.3426,3176
65.4083,3178
65.4739,3182
65.5396,3134
65.6052,3175
65.6709,3102
65.7365,3084
65.8022,3058
65.8678,3081
65.9335,3061
65.9991,3053
66.0648,3050
66.1304,3073
66.1961,3040
66.2617,3007
66.3274,3126
66.393,3068
66.4587,3091
66.5243,3011
66.59,3067
66.6556,3080
66.7213,3130
66.7869,3168
66.8526,3143
66.9182,3116
66.9839,3085
67.0496,2988
67.1152,3071
67.1809,3064
67.2465,3089
67.3122,3074
67.3778,3110
67.4435,3121
67.5091,3097
67.5748,3043
67.6404,3092
67.7061,2938
67.7717,3123
67.8374,3064
67.903,3093
67.9687,3022
68.0343,3072
68.1,3002
68.1656,3113
68.2313,2973
68.2969,3089
68.3626,3039
68.4282,3096
68.4939,3141
68.5595,2981
68.6252,3112
68.6908,3015
68.7565,3100
68.8221,3013
68.8878,3024
68.9534,3121
69.0191,3096
69.0847,2948
69.1504,3034
69.216,3049
69.2817,3052
69.3474,3001
69.413,3031
69.4787,3077
69.5443,3065
69.61,3002
69.6756,3028
69.7413,3085
69.8069,3031
69.8726,3070
69.9382,3032
70.0039,3039
70.0695,2966
70.1352,3072
70.2008,2993
70.2665,3074
70.3321,3045
70.3978,3103
70.4634,2975
70.5291,3061
70.5947,3088
70.6604,3138
70.726,3142
70.7917,3008
70.8573,3113
70.923,3041
70.9886,3063
71.0543,3109
71.1199,3136
71.1856,3106
71.2512,2984
71.3169,2982
71.3825,2965
71.4482,2984
71.5138,3114
71.5795,3130
71.6451,3001
71.7108,3026
71.7765,3093
71.8421,3090
71.9078,3045
71.9734,3089
72.0391,3100
72.1047,3109
72.1704,3060
72.236,3041
72.3017,3024
72.3673,3065
72.433,2984
72.4986,2950
72.5643,3039
72.6299,3053
72.6956,3039
72.7612,2928
72.8269,3076
72.8925,3073
72.9582,3135
73.0238,3170
73.0895,3117
73.1551,3019
73.2208,3027
73.2864,3121
73.3521,3023
73.4177,2990
73.4834,3009
73.549,3037
73.6147,3033
73.6803,2994
73.746,2988
73.8116,2909
73.8773,3014
73.9429,2954
74.0086,3030
74.0743,3088
74.1399,3079
74.2056,3054
74.2712,3004
74.3369,3012
74.4025,2980
74.4682,3020
74.5338,3124
74.5995,2964
74.6651,3070
74.7308,3039
74.7964,2959
74.8621,3050
74.9277,3166
74.9934,3038
75.059,3020
75.1247,3006
75.1903,2981
75.256,2928
75.3216,3040
75.3873,3136
75.4529,3093
75.5186,2957
75.5842,3071
75.6499,3153
75.7155,3038
75.7812,2980
75.8468,2992
75.9125,3092
75.9781,3005
76.0438,3055
76.1094,2995
76.1751,2959
76.2407,3098
76.3064,3063
76.3721,3011
76.4377,3001
76.5034,3053
76.569,2896
76.6347,2977
76.7003,3045
76.766,3017
76.8316,3037
76.8973,3030
76.9629,2970
77.0286,2999
77.0942,3066
77.1599,3028
77.2255,2990
77.2912,3029
77.3568,2923
77.4225,3132
77.4881,3023
77.5538,3006
77.6194,3025
77.6851,3004
77.7507,3070
77.8164,3052
77.882,3006
77.9477,3053
78.0133,3040
78.079,3039
78.1446,2959
78.2103,2904
78.2759,2985
78.3416,2984
78.4072,2974
78.4729,3017
78.5385,2973
78.6042,2954
78.6699,3041
78.7355,2856
78.8012,3044
78.8668,2971
78.9325,2922
78.9981,3001
79.0638,2942
79.1294,2982
79.1951,2915
79.2607,2886
79.3264,2959
79.392,2959
79.4577,2949
79.5233,2900
79.589,2995
79.6546,2895
79.7203,2962
79.7859,2955
79.8516,3013
79.9172,2935
79.9829,2955
80.0485,2988
80.1142,2922
80.1798,3003
80.2455,3016
80.3111,2905
80.3768,2837
80.4424,2960
80.5081,2975
80.5737,3013
80.6394,3097
80.705,3002
80.7707,2934
80.8363,2817
80.902,2916
80.9677,2933
81.0333,2954
81.099,2899
81.1646,2886
81.2303,3065
81.2959,2922
81.3616,2999
81.4272,2934
81.4929,3026
81.5585,2951
81.6242,2863
81.6898,2779
81.7555,2901
81.8211,2930
81.8868,2968
81.9524,2888
82.0181,2865
82.0837,2990
82.1494,2916
82.215,3029
82.2807,2831
82.3463,2879
82.412,2870
82.4776,2895
82.5433,2951
82.6089,2973
82.6746,2937
82.7402,2833
82.80589,2901
82.8715,2957
82.9372,2953
83.0028,2885
83.0685,2905
83.1341,2926
83.1998,2849
83.2654,2719
83.3311,2864
83.3968,2880
83.4624,2926
83.5281,2858
83.5937,2886
83.6594,3046
83.725,2853
83.7907,3021
83.8563,2967
83.922,2894
83.9876,2911
84.0533,2879
84.1189,2922
84.1846,3004
84.2502,2940
84.3159,2927
84.3815,2858
84.4472,2926
84.5128,2870
84.5785,2874
84.6441,2904
84.7098,2884
84.7754,2879
84.8411,2843
84.9067,2940
84.9724,2860
85.038,2897
85.1037,2922
85.1693,2764
85.235,2799
85.3006,2828
85.3663,2789
85.4319,2997
85.4976,2966
85.5632,2869
85.6289,2873
85.6946,2840
85.7602,2868
85.8259,2905
85.8915,2822
85.9572,2860
86.0228,2910
86.0885,2769
86.1541,2894
86.2198,2954
86.2854,2790
86.3511,2837
86.4167,2769
86.4824,2847
86.548,2868
86.6137,2852
86.6793,2730
86.745,2861
86.8106,2742
86.8763,2865
86.9419,2830
87.0076,2850
87.0732,2936
87.1389,2786
87.2045,2905
87.2702,2787
87.3358,2908
87.4015,2794
87.4671,2747
87.5328,2816
87.5984,2799
87.6641,2889
87.7297,2910
87.7954,2878
87.861,2778
87.9267,2881
87.9924,2868
88.058,2820
88.1237,2758
88.1893,2868
88.255,2827
88.3206,2835
88.3863,2744
88.4519,2740
88.5176,2809
88.5832,2787
88.6489,2795
88.7145,2781
88.7802,2903
88.8458,2876
88.9115,2707
88.9771,2780
89.0428,2887
89.1084,2830
89.1741,2804
89.2397,2849
89.3054,2812
89.371,2869
89.4367,2904
89.5023,2838
89.568,2731
89.6336,2838
89.6993,2776
89.7649,2880
89.8306,2757
89.8962,2843
89.9619,2795
90.0275,2806
90.0932,2847
90.1588,2859
90.2245,2804
90.2902,2843
90.3558,2803
90.4215,2949
90.4871,2932
90.5528,2742
90.6184,2801
90.6841,2832
90.7497,2840
90.8154,2819
90.881,2734
90.9467,2756
91.0123,2815
91.078,2791
91.1436,2830
91.2093,2866
91.2749,2851
91.3406,2821
91.4062,2868
91.4719,2840
91.5375,2800
91.6032,2828
91.6688,2741
91.7345,2820
91.8001,2860
91.8658,2809
91.9314,2766
91.9971,2909
92.0627,2761
92.1284,2804
92.194,2749
92.2597,2819
92.3253,2809
92.391,2825
92.4566,2631
92.5223,2795
92.588,2841
92.6536,2740
92.7193,2812
92.7849,2817
92.8506,2764
92.9162,2736
92.9819,2882
93.0475,2789
93.1132,2674
93.1788,2795
93.2445,2728
93.3101,2850
93.3758,2632
93.4414,2879
93.5071,2735
93.5727,2818
93.6384,2785
93.704,2807
93.7697,2757
93.8353,2819
93.901,2840
93.9666,2896
94.0323,2783
94.0979,2766
94.1636,2755
94.2292,2775
94.2949,2738
94.3605,2726
94.4262,2778
94.4918,2750
94.5575,2819
94.6231,2789
94.6888,2757
94.7544,2838
94.8201,2893
94.8858,2761
94.9514,2649
95.0171,2787
95.0827,2710
95.1484,2661
95.214,2721
95.2797,2698
95.3453,2766
95.411,2660
95.4766,2779
95.5423,2730
95.6079,2730
95.6736,2737
95.7392,2730
95.8049,2717
95.8705,2679
95.9362,2692
96.0018,2723
96.0675,2716
96.1331,2857
96.1988,2730
96.2644,2724
96.3301,2672
96.3957,2761
96.4614,2704
96.527,2717
96.5927,2710
96.6583,2681
96.724,2668
96.7896,2707
96.8553,2748
96.9209,2740
96.9866,2633
97.0522,2740
97.1179,2622
97.1835,2649
97.2492,2667
97.3149,2687
97.3805,2702
97.4462,2662
97.5118,2675
97.5775,2663
97.6431,2714
97.7088,2680
97.7744,2700
97.8401,2678
97.9057,2688
97.9714,2666
98.037,2595
98.1027,2695
98.1683,2651
98.234,2689
98.2996,2683
98.3653,2682
98.4309,2739
98.4966,2698
98.5622,2741
98.6279,2616
98.6935,2681
98.7592,2712
98.8248,2703
98.8905,2677
98.9561,2612
99.0218,2651
99.0874,2745
99.1531,2698
99.2187,2631
99.2844,2707
99.35,2733
99.4157,2732
99.4813,2716
99.547,2611
99.6127,2670
99.6783,2543
99.744,2535
99.8096,2605
99.8753,2613
99.9409,2650
99.9934,2613