File: Year 3/Mossbauer/XRD_NBS1_raw.csv
Angle,Intensity
5.00897,2828
5.07462,2883
5.14027,2832
5.20592,2956
5.27157,3051
5.33722,2936
5.40287,2970
5.46853,3058
5.53418,3133
5.59983,3287
5.66548,3226
5.73113,3258
5.79678,3268
5.86243,3301
5.92808,3303
5.99374,3429
6.05939,3408
6.12504,3554
6.19069,3594
6.25634,3536
6.32199,3598
6.38764,3630
6.4533,3799
6.51895,3823
6.5846,3789
6.65025,3878
6.7159,3838
6.78155,3945
6.8472,3810
6.91286,4014
6.97851,3973
7.04416,4042
7.10981,4060
7.17546,4163
7.24111,4244
7.30676,4200
7.37242,4197
7.43807,4267
7.50372,4254
7.56937,4434
7.63502,4416
7.70067,4355
7.76632,4486
7.83198,4608
7.89763,4659
7.96328,4603
8.02893,4588
8.09458,4634
8.16023,4651
8.22588,4622
8.29154,4775
8.35719,4683
8.42284,4780
8.48849,4849
8.55414,4917
8.61979,5003
8.68544,5027
8.7511,4915
8.81675,5047
8.8824,4964
8.94805,5220
9.0137,5024
9.07935,5199
9.145,5192
9.21066,5056
9.27631,5180
9.34196,5063
9.40761,5219
9.47326,5346
9.53891,5283
9.60456,5400
9.67022,5413
9.73587,5374
9.80152,5522
9.86717,5609
9.93282,5516
9.99847,5532
10.0641,5675
10.1298,5729
10.1954,5689
10.2611,5519
10.3267,5696
10.3924,5677
10.458,5697
10.5237,5727
10.5893,5717
10.655,5851
10.7206,5839
10.7863,5892
10.8519,5882
10.9176,5849
10.9832,5901
11.0489,5916
11.1145,5840
11.1802,5819
11.2458,5922
11.3115,5991
11.3772,6068
11.4428,6123
11.5085,5867
11.5741,5940
11.6398,6201
11.7054,6001
11.7711,6233
11.8367,6190
11.9024,6282
11.968,5998
12.0337,6077
12.0993,6158
12.165,6115
12.2306,6217
12.2963,6184
12.3619,6239
12.4276,6184
12.4932,6386
12.5589,6306
12.6245,6311
12.6902,6272
12.7558,6158
12.8215,6512
12.8871,6313
12.9528,6251
13.0184,6345
13.0841,6546
13.1497,6336
13.2154,6569
13.281,6649
13.3467,6585
13.4123,6473
13.478,6652
13.5436,6627
13.6093,6498
13.675,6629
13.7406,6487
13.8063,6541
13.8719,6593
13.9376,6692
14.0032,6702
14.0689,6727
14.1345,6706
14.2002,6501
14.2658,6749
14.3315,6595
14.3971,6753
14.4628,6587
14.5284,6866
14.5941,6693
14.6597,6678
14.7254,6698
14.791,6704
14.8567,6778
14.9223,6669
14.988,6847
15.0536,6719
15.1193,6765
15.1849,6720
15.2506,6815
15.3162,6653
15.3819,6647
15.4475,6701
15.5132,6781
15.5788,6602
15.6445,6723
15.7101,6786
15.7758,6789
15.8414,6663
15.9071,6914
15.9728,6757
16.0384,6756
16.1041,6745
16.1697,6702
16.2354,6672
16.301,6719
16.3667,6752
16.4323,6712
16.498,6757
16.5636,6782
16.6293,6664
16.6949,6730
16.7606,6578
16.8262,6686
16.8919,6538
16.9575,6857
17.0232,6715
17.0888,6663
17.1545,6588
17.2201,6498
17.2858,6762
17.3514,6527
17.4171,6583
17.4827,6710
17.5484,6519
17.614,6698
17.6797,6441
17.7453,6421
17.811,6489
17.8766,6545
17.9423,6511
18.0079,6583
18.0736,6516
18.1392,6660
18.2049,6630
18.2706,6607
18.3362,6513
18.4019,6573
18.4675,6461
18.5332,6476
18.5988,6361
18.6645,6525
18.7301,6384
18.7958,6456
18.8614,6413
18.9271,6473
18.9927,6439
19.0584,6515
19.124,6603
19.1897,6400
19.2553,6489
19.321,6579
19.3866,6533
19.4523,6391
19.5179,6491
19.5836,6653
19.6492,6384
19.7149,6454
19.7805,6392
19.8462,6399
19.9118,6455
19.9775,6497
20.0431,6483
20.1088,6431
20.1744,6450
20.2401,6391
20.3057,6290
20.3714,6328
20.437,6488
20.5027,6398
20.5684,6331
20.634,6426
20.6997,6312
20.7653,6419
20.831,6120
20.8966,6227
20.9623,6520
21.0279,6297
21.0936,6388
21.1592,6298
21.2249,6178
21.2905,6297
21.3562,6217
21.4218,6199
21.4875,6338
21.5531,6449
21.6188,6171
21.6844,6216
21.7501,6261
21.8157,6237
21.8814,6195
21.947,6087
22.0127,6291
22.0783,6288
22.144,6132
22.2096,6179
22.2753,6131
22.3409,6204
22.4066,6157
22.4722,6138
22.5379,6067
22.6035,6192
22.6692,6141
22.7348,6246
22.8005,6220
22.8661,6149
22.9318,6177
22.9975,6054
23.0631,6066
23.1288,6061
23.1944,6256
23.2601,6049
23.3257,6034
23.3914,6068
23.457,6062
23.5227,6003
23.5883,6033
23.654,6107
23.7196,5970
23.7853,5971
23.8509,5850
23.9166,5977
23.9822,6038
24.0479,5829
24.1135,6020
24.1792,5888
24.2448,5933
24.3105,6037
24.3761,5813
24.4418,6045
24.5074,5897
24.5731,5808
24.6387,5876
24.7044,5863
24.77,5888
24.8357,5850
24.9013,5826
24.967,5857
25.0326,5928
25.0983,5705
25.1639,5861
25.2296,5717
25.2953,5805
25.3609,5622
25.4266,5935
25.4922,5799
25.5579,5744
25.6235,5772
25.6892,5771
25.7548,5593
25.8205,5909
25.8861,5657
25.9518,5674
26.0174,5842
26.0831,5673
26.1487,5698
26.2144,5652
26.28,5657
26.3457,5820
26.4113,5742
26.477,5488
26.5426,5704
26.6083,5778
26.6739,5661
26.7396,5761
26.8052,5769
26.8709,5626
26.9365,5647
27.0022,5688
27.0678,5726
27.1335,5691
27.1991,5697
27.2648,5640
27.3304,5575
27.3961,5596
27.4617,5625
27.5274,5546
27.5931,5597
27.6587,5571
27.7244,5620
27.79,5562
27.8557,5687
27.9213,5485
27.987,5516
28.0526,5770
28.1183,5469
28.1839,5544
28.2496,5556
28.3152,5460
28.3809,5506
28.4465,5473
28.5122,5550
28.5778,5541
28.6435,5505
28.7091,5430
28.7748,5550
28.8404,5406
28.9061,5601
28.9717,5521
29.0374,5460
29.103,5532
29.1687,5548
29.2343,5338
29.3,5604
29.3656,5544
29.4313,5443
29.4969,5429
29.5626,5509
29.6282,5455
29.6939,5445
29.7595,5442
29.8252,5317
29.8909,5495
29.9565,5506
30.0222,5478
30.0878,5378
30.1535,5461
30.2191,5536
30.2848,5501
30.3504,5405
30.4161,5438
30.4817,5503
30.5474,5395
30.613,5484
30.6787,5429
30.7443,5421
30.81,5461
30.8756,5487
30.9413,5460
31.0069,5329
31.0726,5549
31.1382,5357
31.2039,5435
31.2695,5357
31.3352,5526
31.4008,5298
31.4665,5414
31.5321,5544
31.5978,5359
31.6634,5441
31.7291,5386
31.7947,5415
31.8604,5394
31.926,5475
31.9917,5442
32.0573,5413
32.123,5360
32.1887,5380
32.2543,5352
32.32,5494
32.3856,5524
32.4513,5407
32.5169,5336
32.5826,5220
32.6482,5402
32.7139,5430
32.7795,5353
32.8452,5387
32.9108,5351
32.9765,5235
33.0421,5242
33.1078,5290
33.1734,5225
33.2391,5269
33.3047,5386
33.3704,5285
33.436,5295
33.5017,5439
33.5673,5412
33.633,5291
33.6986,5361
33.7643,5387
33.8299,5212
33.8956,5348
33.9612,5349
34.0269,5302
34.0925,5395
34.1582,5205
34.2238,5295
34.2895,5316
34.3551,5280
34.4208,5323
34.4864,5331
34.5521,5263
34.6178,5237
34.6834,5198
34.7491,5395
34.8147,5346
34.8804,5293
34.946,5216
35.0117,5196
35.0773,5269
35.143,5178
35.2086,5417
35.2743,5187
35.3399,5210
35.4056,5345
35.4712,5111
35.5369,5184
35.6025,5108
35.6682,5185
35.7338,5332
35.7995,5264
35.8651,5268
35.9308,5173
35.9964,5293
36.0621,5140
36.1277,5197
36.1934,5103
36.259,5173
36.3247,5064
36.3903,5237
36.456,5217
36.5216,5044
36.5873,5170
36.6529,5120
36.7186,5079
36.7842,5109
36.8499,5150
36.9156,5138
36.9812,5128
37.0469,5196
37.1125,5133
37.1782,5009
37.2438,4996
37.3095,5224
37.3751,5019
37.4408,4986
37.5064,5140
37.5721,4931
37.6377,4998
37.7034,5040
37.769,5025
37.8347,4987
37.9003,5021
37.966,4957
38.0316,4917
38.0973,4814
38.1629,4864
38.2286,4830
38.2942,4799
38.3599,4791
38.4255,4791
38.4912,4798
38.5568,4788
38.6225,4809
38.6881,4712
38.7538,4721
38.8194,4662
38.8851,4736
38.9507,4758
39.0164,4751
39.082,4672
39.1477,4653
39.2134,4602
39.279,4602
39.3447,4561
39.4103,4575
39.476,4609
39.5416,4555
39.6073,4492
39.6729,4715
39.7386,4484
39.8042,4375
39.8699,4454
39.9355,4460
40.0012,4572
40.0668,4447
40.1325,4399
40.1981,4408
40.2638,4382
40.3294,4224
40.3951,4322
40.4607,4379
40.5264,4257
40.592,4239
40.6577,4150
40.7233,4257
40.789,4279
40.8546,4114
40.9203,4086
40.9859,4129
41.0516,4223
41.1172,4105
41.1829,4274
41.2485,4119
41.3142,4048
41.3798,4082
41.4455,4010
41.5112,4078
41.5768,4072
41.6425,4126
41.7081,4009
41.7738,4027
41.8394,3989
41.9051,3982
41.9707,3920
42.0364,4012
42.102,4009
42.1677,4041
42.2333,3872
42.299,3924
42.3646,4002
42.4303,3922
42.4959,3945
42.5616,3936
42.6272,3862
42.6929,3842
42.7585,3745
42.8242,3710
42.8898,3773
42.9555,3773
43.0211,3613
43.0868,3733
43.1524,3661
43.2181,3658
43.2837,3592
43.3494,3710
43.415,3763
43.4807,3752
43.5463,3704
43.612,3584
43.6776,3661
43.7433,3580
43.809,3546
43.8746,3641
43.9403,3606
44.0059,3634
44.0716,3496
44.1372,3603
44.2029,3692
44.2685,3628
44.3342,3550
44.3998,3656
44.4655,3632
44.5311,3600
44.5968,3513
44.6624,3541
44.7281,3513
44.7937,3475
44.8594,3519
44.925,3462
44.9907,3439
45.0563,3384
45.122,3507
45.1876,3556
45.2533,3421
45.3189,3440
45.3846,3544
45.4502,3403
45.5159,3338
45.5815,3341
45.6472,3482
45.7128,3379
45.7785,3384
45.8441,3436
45.9098,3371
45.9754,3198
46.0411,3398
46.1067,3356
46.1724,3369
46.2381,3369
46.3037,3328
46.3694,3314
46.435,3331
46.5007,3321
46.5663,3332
46.632,3408
46.6976,3234
46.7633,3315
46.8289,3322
46.8946,3334
46.9602,3328
47.0259,3180
47.0915,3213
47.1572,3346
47.2228,3184
47.2885,3311
47.3541,3376
47.4198,3221
47.4854,3273
47.5511,3278
47.6167,3367
47.6824,3204
47.748,3235
47.8137,3232
47.8793,3222
47.945,3312
48.0106,3282
48.0763,3356
48.1419,3157
48.2076,3204
48.2732,3319
48.3389,3259
48.4045,3219
48.4702,3305
48.5359,3242
48.6015,3235
48.6672,3271
48.7328,3232
48.7985,3106
48.8641,3335
48.9298,3294
48.9954,3135
49.0611,3221
49.1267,3213
49.1924,3278
49.258,3233
49.3237,3229
49.3893,3250
49.455,3153
49.5206,3347
49.5863,3261
49.6519,3313
49.7176,3196
49.7832,3251
49.8489,3174
49.9145,3154
49.9802,3284
50.0458,3160
50.1115,3248
50.1771,3152
50.2428,3145
50.3084,3190
50.3741,3104
50.4397,3250
50.5054,3214
50.571,3104
50.6367,3156
50.7023,3189
50.768,3290
50.8337,3194
50.8993,3218
50.965,3153
51.0306,3200
51.0963,3066
51.1619,3151
51.2276,3239
51.2932,3109
51.3589,3163
51.4245,3257
51.4902,3145
51.5558,3000
51.6215,3227
51.6871,3125
51.7528,3136
51.8184,3055
51.8841,3220
51.9497,3108
52.0154,3131
52.081,3129
52.1467,3134
52.2123,2963
52.278,3103
52.3436,3163
52.4093,3044
52.4749,3117
52.5406,3068
52.6062,3091
52.6719,3107
52.7375,3081
52.8032,3119
52.8688,3079
52.9345,2990
53.0001,3158
53.0658,3095
53.1315,2994
53.1971,2986
53.2628,3030
53.3284,3049
53.3941,3110
53.4597,3032
53.5254,3018
53.591,3055
53.6567,3014
53.7223,2994
53.788,3116
53.8536,2901
53.9193,2942
53.9849,2864
54.0506,2961
54.1162,3067
54.1819,2926
54.2475,2906
54.3132,2957
54.3788,2970
54.4445,2938
54.5101,2936
54.5758,3034
54.6414,2869
54.7071,2946
54.7727,2983
54.8384,2886
54.904,3000
54.9697,2928
55.0353,3004
55.101,2983
55.1666,2925
55.2323,2846
55.2979,2862
55.3636,2887
55.4293,2825
55.4949,2919
55.5606,2892
55.6262,2874
55.6919,2888
55.7575,2830
55.8232,2745
55.8888,2911
55.9545,2823
56.0201,2866
56.0858,2848
56.1514,2893
56.2171,2784
56.2827,2799
56.3484,2846
56.414,2774
56.4797,2815
56.5453,2801
56.611,2771
56.6766,2757
56.7423,2774
56.8079,2712
56.8736,2798
56.9392,2665
57.0049,2774
57.0705,2758
57.1362,2784
57.2018,2704
57.2675,2719
57.3331,2826
57.3988,2750
57.4644,2682
57.5301,2807
57.5957,2686
57.6614,2752
57.7271,2737
57.7927,2697
57.8584,2704
57.924,2687
57.9897,2769
58.0553,2762
58.121,2703
58.1866,2711
58.2523,2800
58.3179,2724
58.3836,2695
58.4492,2780
58.5149,2657
58.5805,2694
58.6462,2699
58.7118,2749
58.7775,2581
58.8431,2611
58.9088,2671
58.9744,2573
59.0401,2638
59.1057,2632
59.1714,2616
59.237,2667
59.3027,2594
59.3683,2633
59.434,2555
59.4996,2566
59.5653,2597
59.6309,2669
59.6966,2567
59.7622,2578
59.8279,2563
59.8935,2673
59.9592,2515
60.0248,2547
60.0905,2613
60.1562,2716
60.2218,2587
60.2875,2581
60.3531,2567
60.4188,2540
60.4844,2663
60.5501,2679
60.6157,2604
60.6814,2617
60.747,2497
60.8127,2530
60.8783,2575
60.944,2586
61.0096,2569
61.0753,2501
61.1409,2561
61.2066,2533
61.2722,2495
61.3379,2506
61.4035,2536
61.4692,2563
61.5348,2582
61.6005,2572
61.6661,2589
61.7318,2481
61.7974,2486
61.8631,2499
61.9287,2528
61.9944,2509
62.06,2472
62.1257,2531
62.1913,2609
62.257,2479
62.3226,2612
62.3883,2458
62.454,2551
62.5196,2561
62.5853,2503
62.6509,2522
62.7166,2474
62.7822,2545
62.8479,2510
62.9135,2584
62.9792,2602
63.0448,2512
63.1105,2489
63.1761,2483
63.2418,2417
63.3074,2539
63.3731,2442
63.4387,2514
63.5044,2463
63.57,2548
63.6357,2493
63.7013,2479
63.767,2504
63.8326,2509
63.8983,2449
63.9639,2471
64.0296,2492
64.0952,2471
64.1609,2487
64.2265,2516
64.2922,2393
64.3578,2553
64.4235,2467
64.4891,2424
64.5548,2465
64.6204,2445
64.6861,2447
64.7518,2477
64.8174,2452
64.8831,2536
64.9487,2376
65.0144,2383
65.08,2363
65.1457,2437
65.2113,2430
65.277,2336
65.3426,2421
65.4083,2492
65.4739,2417
65.5396,2480
65.6052,2427
65.6709,2399
65.7365,2477
65.8022,2348
65.8678,2429
65.9335,2354
65.9991,2391
66.0648,2432
66.1304,2370
66.1961,2362
66.2617,2381
66.3274,2418
66.393,2438
66.4587,2458
66.5243,2338
66.59,2432
66.6556,2336
66.7213,2496
66.7869,2453
66.8526,2425
66.9182,2323
66.9839,2320
67.0496,2345
67.1152,2380
67.1809,2431
67.2465,2374
67.3122,2410
67.3778,2294
67.4435,2428
67.5091,2391
67.5748,2385
67.6404,2380
67.7061,2425
67.7717,2389
67.8374,2299
67.903,2333
67.9687,2286
68.0343,2369
68.1,2346
68.1656,2314
68.2313,2343
68.2969,2360
68.3626,2343
68.4282,2336
68.4939,2286
68.5595,2397
68.6252,2393
68.6908,2423
68.7565,2418
68.8221,2353
68.8878,2446
68.9534,2360
69.0191,2344
69.0847,2411
69.1504,2334
69.216,2270
69.2817,2375
69.3474,2277
69.413,2427
69.4787,2327
69.5443,2474
69.61,2433
69.6756,2267
69.7413,2407
69.8069,2387
69.8726,2271
69.9382,2394
70.0039,2316
70.0695,2398
70.1352,2346
70.2008,2381
70.2665,2340
70.3321,2355
70.3978,2282
70.4634,2343
70.5291,2389
70.5947,2307
70.6604,2298
70.726,2355
70.7917,2318
70.8573,2283
70.923,2312
70.9886,2329
71.0543,2370
71.1199,2240
71.1856,2275
71.2512,2266
71.3169,2208
71.3825,2332
71.4482,2284
71.5138,2323
71.5795,2306
71.6451,2207
71.7108,2271
71.7765,2275
71.8421,2271
71.9078,2305
71.9734,2314
72.0391,2301
72.1047,2227
72.1704,2279
72.236,2228
72.3017,2234
72.3673,2313
72.433,2326
72.4986,2375
72.5643,2234
72.6299,2281
72.6956,2233
72.7612,2282
72.8269,2293
72.8925,2265
72.9582,2179
73.0238,2192
73.0895,2312
73.1551,2262
73.2208,2275
73.2864,2212
73.3521,2245
73.4177,2170
73.4834,2306
73.549,2313
73.6147,2280
73.6803,2205
73.746,2237
73.8116,2260
73.8773,2255
73.9429,2322
74.0086,2245
74.0743,2314
74.1399,2413
74.2056,2180
74.2712,2271
74.3369,2315
74.4025,2255
74.4682,2274
74.5338,2221
74.5995,2295
74.6651,2265
74.7308,2313
74.7964,2317
74.8621,2157
74.9277,2250
74.9934,2256
75.059,2214
75.1247,2202
75.1903,2215
75.256,2244
75.3216,2255
75.3873,2124
75.4529,2238
75.5186,2221
75.5842,2205
75.6499,2219
75.7155,2188
75.7812,2288
75.8468,2218
75.9125,2228
75.9781,2204
76.0438,2286
76.1094,2196
76.1751,2266
76.2407,2144
76.3064,2245
76.3721,2161
76.4377,2155
76.5034,2150
76.569,2192
76.6347,2269
76.7003,2225
76.766,2224
76.8316,2216
76.8973,2244
76.9629,2097
77.0286,2150
77.0942,2222
77.1599,2212
77.2255,2200
77.2912,2185
77.3568,2204
77.4225,2274
77.4881,2181
77.5538,2069
77.6194,2292
77.6851,2183
77.7507,2200
77.8164,2133
77.882,2169
77.9477,2165
78.0133,2201
78.079,2233
78.1446,2137
78.2103,2190
78.2759,2103
78.3416,2181
78.4072,2242
78.4729,2173
78.5385,2200
78.6042,2188
78.6699,2166
78.7355,2121
78.8012,2125
78.8668,2140
78.9325,2154
78.9981,2236
79.0638,2091
79.1294,2123
79.1951,2065
79.2607,2108
79.3264,2204
79.392,2196
79.4577,2111
79.5233,2144
79.589,2105
79.6546,2083
79.7203,2074
79.7859,2140
79.8516,2158
79.9172,2157
79.9829,2129
80.0485,2149
80.1142,2063
80.1798,2021
80.2455,2126
80.3111,2083
80.3768,2130
80.4424,2202
80.5081,2151
80.5737,2105
80.6394,2160
80.705,2057
80.7707,2167
80.8363,2073
80.902,2007
80.9677,2142
81.0333,2075
81.099,2075
81.1646,2132
81.2303,1998
81.2959,2044
81.3616,2098
81.4272,2066
81.4929,2106
81.5585,2068
81.6242,2112
81.6898,2021
81.7555,2092
81.8211,2048
81.8868,2158
81.9524,2043
82.0181,1946
82.0837,2098
82.1494,1913
82.215,2041
82.2807,2080
82.3463,2142
82.412,1974
82.4776,2015
82.5433,2043
82.6089,2032
82.6746,2050
82.7402,2075
82.80589,1982
82.8715,2021
82.9372,2132
83.0028,1974
83.0685,2024
83.1341,2016
83.1998,2048
83.2654,2047
83.3311,2035
83.3968,2088
83.4624,2012
83.5281,1972
83.5937,2032
83.6594,1956
83.725,2071
83.7907,1939
83.8563,2058
83.922,2109
83.9876,2044
84.0533,1973
84.1189,1952
84.1846,2075
84.2502,2049
84.3159,2087
84.3815,2063
84.4472,2096
84.5128,1959
84.5785,2139
84.6441,2046
84.7098,1971
84.7754,2012
84.8411,1955
84.9067,1995
84.9724,1945
85.038,1941
85.1037,1960
85.1693,2087
85.235,1931
85.3006,1980
85.3663,2024
85.4319,2036
85.4976,1971
85.5632,1957
85.6289,2032
85.6946,1997
85.7602,1977
85.8259,1915
85.8915,1998
85.9572,1989
86.0228,1958
86.0885,2021
86.1541,1978
86.2198,1892
86.2854,1989
86.3511,2003
86.4167,1987
86.4824,1980
86.548,1985
86.6137,1946
86.6793,2003
86.745,2027
86.8106,2044
86.8763,1920
86.9419,1991
87.0076,1915
87.0732,1983
87.1389,1827
87.2045,1889
87.2702,2022
87.3358,2029
87.4015,1958
87.4671,1898
87.5328,2060
87.5984,2019
87.6641,1937
87.7297,2043
87.7954,1995
87.861,2014
87.9267,1930
87.9924,1894
88.058,1981
88.1237,1973
88.1893,1977
88.255,1946
88.3206,2015
88.3863,1907
88.4519,2011
88.5176,1921
88.5832,1918
88.6489,1941
88.7145,1972
88.7802,1965
88.8458,1918
88.9115,1937
88.9771,1865
89.0428,2060
89.1084,1937
89.1741,1961
89.2397,1887
89.3054,2039
89.371,2042
89.4367,1999
89.5023,1973
89.568,1976
89.6336,1948
89.6993,1923
89.7649,1982
89.8306,1956
89.8962,2027
89.9619,1888
90.0275,1966
90.0932,1951
90.1588,1943
90.2245,1960
90.2902,1912
90.3558,1971
90.4215,2019
90.4871,1960
90.5528,1873
90.6184,2004
90.6841,1953
90.7497,1971
90.8154,1931
90.881,2008
90.9467,1899
91.0123,1950
91.078,1936
91.1436,1989
91.2093,2004
91.2749,1960
91.3406,1983
91.4062,1943
91.4719,1881
91.5375,1959
91.6032,1967
91.6688,1951
91.7345,1964
91.8001,1903
91.8658,1914
91.9314,1939
91.9971,1970
92.0627,1907
92.1284,1883
92.194,1908
92.2597,1924
92.3253,1937
92.391,1892
92.4566,1996
92.5223,1894
92.588,1901
92.6536,1928
92.7193,1890
92.7849,1854
92.8506,1877
92.9162,1943
92.9819,1922
93.0475,1915
93.1132,2046
93.1788,1983
93.2445,1944
93.3101,1934
93.3758,1895
93.4414,1922
93.5071,1968
93.5727,1931
93.6384,1936
93.704,1946
93.7697,1917
93.8353,1953
93.901,1915
93.9666,1900
94.0323,1945
94.0979,2024
94.1636,1981
94.2292,1881
94.2949,1911
94.3605,1928
94.4262,2010
94.4918,1884
94.5575,1829
94.6231,1865
94.6888,1879
94.7544,1917
94.8201,1926
94.8858,1882
94.9514,1920
95.0171,1845
95.0827,1895
95.1484,1922
95.214,1932
95.2797,1942
95.3453,1842
95.411,1934
95.4766,1979
95.5423,1933
95.6079,1893
95.6736,1981
95.7392,1981
95.8049,1925
95.8705,1879
95.9362,1895
96.0018,1939
96.0675,1941
96.1331,1933
96.1988,1942
96.2644,1899
96.3301,1964
96.3957,1982
96.4614,1979
96.527,1821
96.5927,1979
96.6583,1942
96.724,1918
96.7896,1875
96.8553,1910
96.9209,1831
96.9866,1866
97.0522,2043
97.1179,1962
97.1835,1888
97.2492,1974
97.3149,1954
97.3805,1929
97.4462,1856
97.5118,1895
97.5775,1894
97.6431,1905
97.7088,1873
97.7744,1873
97.8401,1946
97.9057,1898
97.9714,1825
98.037,1848
98.1027,1880
98.1683,1859
98.234,1943
98.2996,1890
98.3653,1910
98.4309,1804
98.4966,1935
98.5622,1821
98.6279,1891
98.6935,1825
98.7592,1864
98.8248,1926
98.8905,1917
98.9561,1950
99.0218,1844
99.0874,1833
99.1531,1822
99.2187,1876
99.2844,1961
99.35,1904
99.4157,1925
99.4813,1872
99.547,1923
99.6127,1897
99.6783,1887
99.744,1872
99.8096,1937
99.8753,1888
99.9409,1880
99.9934,1885