File: Year 3/Mossbauer/XRD_CaZn 4V2_raw.csv
Angle,Intensity
5.00897,3049
5.07462,3033
5.14027,3062
5.20592,3060
5.27157,3115
5.33722,3087
5.40287,3196
5.46853,3280
5.53418,3209
5.59983,3294
5.66548,3286
5.73113,3371
5.79678,3318
5.86243,3423
5.92808,3527
5.99374,3427
6.05939,3507
6.12504,3473
6.19069,3536
6.25634,3606
6.32199,3553
6.38764,3674
6.4533,3742
6.51895,3703
6.5846,3809
6.65025,3690
6.7159,3689
6.78155,4007
6.8472,3987
6.91286,3914
6.97851,3834
7.04416,3819
7.10981,3985
7.17546,3968
7.24111,4021
7.30676,4030
7.37242,4150
7.43807,4023
7.50372,4044
7.56937,4108
7.63502,4218
7.70067,4295
7.76632,4190
7.83198,4249
7.89763,4396
7.96328,4238
8.02893,4399
8.09458,4468
8.16023,4361
8.22588,4381
8.29154,4419
8.35719,4515
8.42284,4538
8.48849,4544
8.55414,4662
8.61979,4754
8.68544,4654
8.7511,4642
8.81675,4719
8.8824,4777
8.94805,4750
9.0137,4700
9.07935,4847
9.145,4900
9.21066,4899
9.27631,5062
9.34196,4815
9.40761,4815
9.47326,4980
9.53891,4877
9.60456,5004
9.67022,5236
9.73587,5059
9.80152,5052
9.86717,5124
9.93282,5193
9.99847,5089
10.0641,5120
10.1298,5198
10.1954,5223
10.2611,5299
10.3267,5273
10.3924,5283
10.458,5378
10.5237,5355
10.5893,5219
10.655,5385
10.7206,5400
10.7863,5360
10.8519,5444
10.9176,5506
10.9832,5519
11.0489,5449
11.1145,5508
11.1802,5566
11.2458,5761
11.3115,5588
11.3772,5682
11.4428,5485
11.5085,5598
11.5741,5669
11.6398,5671
11.7054,5623
11.7711,5643
11.8367,5602
11.9024,5765
11.968,5853
12.0337,5834
12.0993,5821
12.165,5757
12.2306,5800
12.2963,5897
12.3619,5824
12.4276,5819
12.4932,5972
12.5589,5761
12.6245,5910
12.6902,5945
12.7558,5873
12.8215,6059
12.8871,6028
12.9528,6057
13.0184,6198
13.0841,6002
13.1497,6020
13.2154,6105
13.281,6185
13.3467,6082
13.4123,6034
13.478,6070
13.5436,6122
13.6093,6069
13.675,6146
13.7406,6158
13.8063,6105
13.8719,6277
13.9376,6198
14.0032,6286
14.0689,6391
14.1345,6235
14.2002,6319
14.2658,6400
14.3315,6425
14.3971,6537
14.4628,6394
14.5284,6233
14.5941,6298
14.6597,6337
14.7254,6291
14.791,6294
14.8567,6355
14.9223,6453
14.988,6358
15.0536,6243
15.1193,6402
15.1849,6387
15.2506,6291
15.3162,6477
15.3819,6453
15.4475,6470
15.5132,6550
15.5788,6399
15.6445,6424
15.7101,6412
15.7758,6221
15.8414,6578
15.9071,6408
15.9728,6473
16.0384,6393
16.1041,6438
16.1697,6432
16.2354,6505
16.301,6373
16.3667,6489
16.4323,6383
16.498,6397
16.5636,6466
16.6293,6335
16.6949,6399
16.7606,6467
16.8262,6290
16.8919,6411
16.9575,6369
17.0232,6402
17.0888,6256
17.1545,6396
17.2201,6419
17.2858,6337
17.3514,6398
17.4171,6292
17.4827,6354
17.5484,6333
17.614,6294
17.6797,6190
17.7453,6315
17.811,6333
17.8766,6286
17.9423,6206
18.0079,6372
18.0736,6402
18.1392,6213
18.2049,6092
18.2706,6464
18.3362,6391
18.4019,6209
18.4675,6253
18.5332,6147
18.5988,6237
18.6645,6196
18.7301,6152
18.7958,6167
18.8614,6083
18.9271,6101
18.9927,6093
19.0584,6087
19.124,6074
19.1897,6078
19.2553,6136
19.321,6030
19.3866,6105
19.4523,6033
19.5179,6085
19.5836,6191
19.6492,6100
19.7149,5987
19.7805,6004
19.8462,5964
19.9118,5984
19.9775,5887
20.0431,5920
20.1088,5849
20.1744,6038
20.2401,5962
20.3057,5977
20.3714,6043
20.437,6088
20.5027,5920
20.5684,5949
20.634,5962
20.6997,5940
20.7653,5955
20.831,5932
20.8966,6070
20.9623,5871
21.0279,6003
21.0936,6013
21.1592,5954
21.2249,6029
21.2905,5951
21.3562,5803
21.4218,5839
21.4875,5820
21.5531,5787
21.6188,5838
21.6844,5659
21.7501,5754
21.8157,5918
21.8814,5785
21.947,5999
22.0127,5805
22.0783,5835
22.144,5807
22.2096,5736
22.2753,5750
22.3409,5827
22.4066,5855
22.4722,5891
22.5379,5817
22.6035,5705
22.6692,5681
22.7348,5730
22.8005,5818
22.8661,5788
22.9318,5747
22.9975,5833
23.0631,5725
23.1288,5766
23.1944,5863
23.2601,5735
23.3257,5744
23.3914,5663
23.457,5660
23.5227,5826
23.5883,5795
23.654,5722
23.7196,5803
23.7853,5643
23.8509,5803
23.9166,5817
23.9822,5733
24.0479,5720
24.1135,5637
24.1792,5608
24.2448,5679
24.3105,5742
24.3761,5808
24.4418,5585
24.5074,5638
24.5731,5769
24.6387,5699
24.7044,5796
24.77,5721
24.8357,5622
24.9013,5527
24.967,5513
25.0326,5637
25.0983,5449
25.1639,5726
25.2296,5609
25.2953,5616
25.3609,5532
25.4266,5662
25.4922,5725
25.5579,5773
25.6235,5401
25.6892,5621
25.7548,5709
25.8205,5592
25.8861,5572
25.9518,5628
26.0174,5415
26.0831,5544
26.1487,5642
26.2144,5657
26.28,5575
26.3457,5673
26.4113,5606
26.477,5515
26.5426,5585
26.6083,5569
26.6739,5614
26.7396,5504
26.8052,5578
26.8709,5523
26.9365,5594
27.0022,5604
27.0678,5708
27.1335,5671
27.1991,5547
27.2648,5649
27.3304,5613
27.3961,5668
27.4617,5375
27.5274,5645
27.5931,5521
27.6587,5606
27.7244,5437
27.79,5611
27.8557,5595
27.9213,5537
27.987,5604
28.0526,5583
28.1183,5606
28.1839,5469
28.2496,5570
28.3152,5522
28.3809,5481
28.4465,5432
28.5122,5478
28.5778,5476
28.6435,5338
28.7091,5412
28.7748,5471
28.8404,5497
28.9061,5516
28.9717,5481
29.0374,5430
29.103,5463
29.1687,5501
29.2343,5398
29.3,5476
29.3656,5443
29.4313,5337
29.4969,5415
29.5626,5451
29.6282,5403
29.6939,5458
29.7595,5501
29.8252,5507
29.8909,5489
29.9565,5554
30.0222,5415
30.0878,5454
30.1535,5506
30.2191,5506
30.2848,5388
30.3504,5527
30.4161,5378
30.4817,5429
30.5474,5408
30.613,5378
30.6787,5418
30.7443,5470
30.81,5543
30.8756,5449
30.9413,5451
31.0069,5385
31.0726,5312
31.1382,5388
31.2039,5285
31.2695,5353
31.3352,5491
31.4008,5426
31.4665,5366
31.5321,5374
31.5978,5428
31.6634,5491
31.7291,5490
31.7947,5457
31.8604,5425
31.926,5486
31.9917,5440
32.0573,5662
32.123,5352
32.1887,5411
32.2543,5656
32.32,5414
32.3856,5506
32.4513,5554
32.5169,5427
32.5826,5287
32.6482,5583
32.7139,5499
32.7795,5549
32.8452,5426
32.9108,5444
32.9765,5376
33.0421,5540
33.1078,5387
33.1734,5395
33.2391,5460
33.3047,5415
33.3704,5481
33.436,5469
33.5017,5414
33.5673,5497
33.633,5421
33.6986,5475
33.7643,5477
33.8299,5422
33.8956,5555
33.9612,5383
34.0269,5391
34.0925,5604
34.1582,5448
34.2238,5210
34.2895,5436
34.3551,5424
34.4208,5526
34.4864,5405
34.5521,5357
34.6178,5580
34.6834,5569
34.7491,5441
34.8147,5415
34.8804,5521
34.946,5431
35.0117,5506
35.0773,5502
35.143,5488
35.2086,5574
35.2743,5435
35.3399,5358
35.4056,5527
35.4712,5530
35.5369,5433
35.6025,5556
35.6682,5573
35.7338,5628
35.7995,5389
35.8651,5611
35.9308,5514
35.9964,5486
36.0621,5613
36.1277,5616
36.1934,5472
36.259,5534
36.3247,5550
36.3903,5528
36.456,5522
36.5216,5548
36.5873,5549
36.6529,5489
36.7186,5589
36.7842,5430
36.8499,5301
36.9156,5542
36.9812,5498
37.0469,5387
37.1125,5538
37.1782,5497
37.2438,5544
37.3095,5368
37.3751,5389
37.4408,5404
37.5064,5384
37.5721,5392
37.6377,5377
37.7034,5312
37.769,5265
37.8347,5339
37.9003,5279
37.966,5393
38.0316,5348
38.0973,5362
38.1629,5283
38.2286,5261
38.2942,5263
38.3599,5264
38.4255,5260
38.4912,5159
38.5568,5420
38.6225,5299
38.6881,5201
38.7538,5306
38.8194,5181
38.8851,5275
38.9507,5235
39.0164,5332
39.082,5132
39.1477,5260
39.2134,5244
39.279,5103
39.3447,5154
39.4103,5098
39.476,5170
39.5416,5201
39.6073,5122
39.6729,5035
39.7386,5148
39.8042,5096
39.8699,5030
39.9355,5017
40.0012,5121
40.0668,5096
40.1325,5182
40.1981,4875
40.2638,5139
40.3294,5072
40.3951,5021
40.4607,4940
40.5264,5084
40.592,4888
40.6577,4884
40.7233,5051
40.789,4937
40.8546,5106
40.9203,4979
40.9859,4917
41.0516,4947
41.1172,4989
41.1829,4924
41.2485,5029
41.3142,4877
41.3798,4924
41.4455,5017
41.5112,4917
41.5768,5084
41.6425,4761
41.7081,4831
41.7738,4908
41.8394,4931
41.9051,4911
41.9707,4730
42.0364,4862
42.102,4725
42.1677,4803
42.2333,4822
42.299,4853
42.3646,4594
42.4303,4730
42.4959,4697
42.5616,4672
42.6272,4641
42.6929,4669
42.7585,4551
42.8242,4560
42.8898,4751
42.9555,4635
43.0211,4658
43.0868,4669
43.1524,4612
43.2181,4649
43.2837,4682
43.3494,4653
43.415,4590
43.4807,4511
43.5463,4420
43.612,4660
43.6776,4546
43.7433,4487
43.809,4429
43.8746,4486
43.9403,4540
44.0059,4514
44.0716,4529
44.1372,4515
44.2029,4538
44.2685,4602
44.3342,4287
44.3998,4424
44.4655,4494
44.5311,4410
44.5968,4458
44.6624,4369
44.7281,4387
44.7937,4396
44.8594,4329
44.925,4316
44.9907,4453
45.0563,4327
45.122,4362
45.1876,4429
45.2533,4321
45.3189,4273
45.3846,4305
45.4502,4406
45.5159,4290
45.5815,4235
45.6472,4373
45.7128,4375
45.7785,4254
45.8441,4204
45.9098,4186
45.9754,4258
46.0411,4226
46.1067,4249
46.1724,4169
46.2381,4279
46.3037,4238
46.3694,4155
46.435,4215
46.5007,4332
46.5663,4216
46.632,4228
46.6976,4204
46.7633,4099
46.8289,4143
46.8946,4179
46.9602,4231
47.0259,4211
47.0915,4138
47.1572,4227
47.2228,4110
47.2885,4186
47.3541,4285
47.4198,4183
47.4854,4217
47.5511,3998
47.6167,4250
47.6824,4164
47.748,4208
47.8137,4170
47.8793,4204
47.945,4147
48.0106,4079
48.0763,4076
48.1419,4209
48.2076,4081
48.2732,4133
48.3389,4046
48.4045,4149
48.4702,4062
48.5359,4275
48.6015,4128
48.6672,4119
48.7328,4094
48.7985,4170
48.8641,4159
48.9298,4196
48.9954,4160
49.0611,4113
49.1267,4145
49.1924,4061
49.258,4170
49.3237,4071
49.3893,4184
49.455,4172
49.5206,4194
49.5863,4179
49.6519,4139
49.7176,4218
49.7832,4251
49.8489,4095
49.9145,4063
49.9802,4195
50.0458,4062
50.1115,4057
50.1771,4139
50.2428,4089
50.3084,4190
50.3741,4113
50.4397,4098
50.5054,4081
50.571,4200
50.6367,4181
50.7023,4176
50.768,4049
50.8337,4071
50.8993,4135
50.965,4089
51.0306,4070
51.0963,4138
51.1619,4122
51.2276,4174
51.2932,4100
51.3589,4104
51.4245,3993
51.4902,3974
51.5558,4045
51.6215,4113
51.6871,3998
51.7528,4160
51.8184,4157
51.8841,4138
51.9497,4063
52.0154,3975
52.081,4073
52.1467,4074
52.2123,4005
52.278,4191
52.3436,4145
52.4093,4001
52.4749,3951
52.5406,4025
52.6062,4040
52.6719,4095
52.7375,4088
52.8032,4114
52.8688,3969
52.9345,4094
53.0001,4022
53.0658,4009
53.1315,4082
53.1971,4003
53.2628,4007
53.3284,4120
53.3941,4042
53.4597,4009
53.5254,4051
53.591,3988
53.6567,4120
53.7223,4056
53.788,4045
53.8536,4037
53.9193,4001
53.9849,3978
54.0506,4009
54.1162,4023
54.1819,3824
54.2475,3992
54.3132,3896
54.3788,3925
54.4445,4023
54.5101,3929
54.5758,3984
54.6414,3988
54.7071,4067
54.7727,3941
54.8384,4066
54.904,3834
54.9697,4027
55.0353,3922
55.101,3843
55.1666,3891
55.2323,3919
55.2979,3962
55.3636,3885
55.4293,3919
55.4949,3988
55.5606,3935
55.6262,4010
55.6919,3795
55.7575,4000
55.8232,3935
55.8888,3983
55.9545,3919
56.0201,3807
56.0858,3891
56.1514,3884
56.2171,3862
56.2827,3987
56.3484,3929
56.414,4003
56.4797,3951
56.5453,3982
56.611,4030
56.6766,3995
56.7423,3841
56.8079,3756
56.8736,3915
56.9392,3907
57.0049,3893
57.0705,3865
57.1362,3879
57.2018,3899
57.2675,4037
57.3331,3871
57.3988,3974
57.4644,3888
57.5301,3791
57.5957,3843
57.6614,3985
57.7271,3964
57.7927,3899
57.8584,3857
57.924,3934
57.9897,3841
58.0553,3778
58.121,3827
58.1866,3915
58.2523,3865
58.3179,3840
58.3836,3870
58.4492,3808
58.5149,3848
58.5805,3866
58.6462,3825
58.7118,3840
58.7775,3833
58.8431,3867
58.9088,3815
58.9744,3694
59.0401,3911
59.1057,3765
59.1714,3823
59.237,3730
59.3027,3824
59.3683,3776
59.434,3712
59.4996,3839
59.5653,3856
59.6309,3887
59.6966,3764
59.7622,3790
59.8279,3782
59.8935,3764
59.9592,3865
60.0248,3773
60.0905,3762
60.1562,3807
60.2218,3664
60.2875,3846
60.3531,3717
60.4188,3700
60.4844,3692
60.5501,3744
60.6157,3804
60.6814,3728
60.747,3801
60.8127,3662
60.8783,3811
60.944,3654
61.0096,3663
61.0753,3664
61.1409,3691
61.2066,3731
61.2722,3625
61.3379,3825
61.4035,3717
61.4692,3649
61.5348,3748
61.6005,3644
61.6661,3604
61.7318,3665
61.7974,3701
61.8631,3618
61.9287,3777
61.9944,3734
62.06,3579
62.1257,3795
62.1913,3783
62.257,3572
62.3226,3734
62.3883,3782
62.454,3609
62.5196,3667
62.5853,3628
62.6509,3670
62.7166,3680
62.7822,3698
62.8479,3655
62.9135,3659
62.9792,3621
63.0448,3724
63.1105,3784
63.1761,3567
63.2418,3682
63.3074,3673
63.3731,3629
63.4387,3738
63.5044,3668
63.57,3758
63.6357,3721
63.7013,3517
63.767,3553
63.8326,3614
63.8983,3641
63.9639,3576
64.0296,3716
64.0952,3641
64.1609,3566
64.2265,3577
64.2922,3689
64.3578,3550
64.4235,3646
64.4891,3480
64.5548,3626
64.6204,3541
64.6861,3640
64.7518,3592
64.8174,3595
64.8831,3630
64.9487,3643
65.0144,3544
65.08,3638
65.1457,3484
65.2113,3655
65.277,3527
65.3426,3573
65.4083,3615
65.4739,3559
65.5396,3561
65.6052,3673
65.6709,3569
65.7365,3522
65.8022,3533
65.8678,3653
65.9335,3517
65.9991,3515
66.0648,3477
66.1304,3483
66.1961,3557
66.2617,3523
66.3274,3578
66.393,3524
66.4587,3456
66.5243,3575
66.59,3450
66.6556,3511
66.7213,3496
66.7869,3447
66.8526,3581
66.9182,3452
66.9839,3488
67.0496,3575
67.1152,3583
67.1809,3496
67.2465,3449
67.3122,3483
67.3778,3522
67.4435,3518
67.5091,3308
67.5748,3508
67.6404,3467
67.7061,3520
67.7717,3460
67.8374,3430
67.903,3439
67.9687,3514
68.0343,3478
68.1,3505
68.1656,3520
68.2313,3402
68.2969,3524
68.3626,3507
68.4282,3446
68.4939,3518
68.5595,3381
68.6252,3569
68.6908,3372
68.7565,3443
68.8221,3412
68.8878,3456
68.9534,3662
69.0191,3556
69.0847,3385
69.1504,3385
69.216,3484
69.2817,3443
69.3474,3378
69.413,3423
69.4787,3408
69.5443,3392
69.61,3293
69.6756,3434
69.7413,3424
69.8069,3598
69.8726,3425
69.9382,3413
70.0039,3392
70.0695,3410
70.1352,3390
70.2008,3413
70.2665,3361
70.3321,3368
70.3978,3399
70.4634,3363
70.5291,3366
70.5947,3430
70.6604,3344
70.726,3397
70.7917,3344
70.8573,3385
70.923,3348
70.9886,3308
71.0543,3336
71.1199,3364
71.1856,3281
71.2512,3375
71.3169,3462
71.3825,3457
71.4482,3299
71.5138,3383
71.5795,3244
71.6451,3342
71.7108,3438
71.7765,3336
71.8421,3357
71.9078,3310
71.9734,3360
72.0391,3332
72.1047,3306
72.1704,3368
72.236,3459
72.3017,3312
72.3673,3297
72.433,3253
72.4986,3255
72.5643,3365
72.6299,3236
72.6956,3400
72.7612,3372
72.8269,3228
72.8925,3412
72.9582,3331
73.0238,3404
73.0895,3418
73.1551,3273
73.2208,3355
73.2864,3290
73.3521,3230
73.4177,3270
73.4834,3230
73.549,3280
73.6147,3354
73.6803,3368
73.746,3467
73.8116,3316
73.8773,3241
73.9429,3366
74.0086,3321
74.0743,3296
74.1399,3307
74.2056,3238
74.2712,3367
74.3369,3320
74.4025,3288
74.4682,3273
74.5338,3290
74.5995,3200
74.6651,3143
74.7308,3390
74.7964,3317
74.8621,3314
74.9277,3253
74.9934,3286
75.059,3319
75.1247,3187
75.1903,3290
75.256,3400
75.3216,3237
75.3873,3256
75.4529,3261
75.5186,3164
75.5842,3222
75.6499,3193
75.7155,3299
75.7812,3336
75.8468,3241
75.9125,3153
75.9781,3236
76.0438,3277
76.1094,3241
76.1751,3229
76.2407,3274
76.3064,3265
76.3721,3164
76.4377,3135
76.5034,3228
76.569,3255
76.6347,3242
76.7003,3200
76.766,3132
76.8316,3221
76.8973,3267
76.9629,3198
77.0286,3171
77.0942,3208
77.1599,3303
77.2255,3159
77.2912,3227
77.3568,3158
77.4225,3130
77.4881,3196
77.5538,3248
77.6194,3282
77.6851,3296
77.7507,3180
77.8164,3247
77.882,3162
77.9477,3137
78.0133,3176
78.079,3202
78.1446,3185
78.2103,3130
78.2759,3155
78.3416,3118
78.4072,3196
78.4729,3224
78.5385,3193
78.6042,3111
78.6699,3107
78.7355,3223
78.8012,3125
78.8668,3145
78.9325,3193
78.9981,3158
79.0638,3175
79.1294,3137
79.1951,3153
79.2607,3139
79.3264,3115
79.392,3148
79.4577,3212
79.5233,3231
79.589,3086
79.6546,3062
79.7203,3173
79.7859,3126
79.8516,3272
79.9172,3265
79.9829,3099
80.0485,3131
80.1142,3167
80.1798,3132
80.2455,3118
80.3111,3136
80.3768,3138
80.4424,3125
80.5081,3075
80.5737,3066
80.6394,3130
80.705,3022
80.7707,3076
80.8363,3149
80.902,3110
80.9677,3111
81.0333,3066
81.099,3113
81.1646,3018
81.2303,3086
81.2959,3081
81.3616,3203
81.4272,3138
81.4929,3125
81.5585,2938
81.6242,3076
81.6898,3055
81.7555,3014
81.8211,3176
81.8868,3048
81.9524,3093
82.0181,3185
82.0837,3009
82.1494,3140
82.215,2965
82.2807,3077
82.3463,3047
82.412,3093
82.4776,3070
82.5433,3045
82.6089,2859
82.6746,2977
82.7402,3092
82.80589,2964
82.8715,3049
82.9372,3050
83.0028,3034
83.0685,3008
83.1341,3023
83.1998,2973
83.2654,3049
83.3311,3025
83.3968,2923
83.4624,3076
83.5281,3084
83.5937,3035
83.6594,3145
83.725,3069
83.7907,2995
83.8563,3052
83.922,2945
83.9876,2966
84.0533,2972
84.1189,2965
84.1846,3004
84.2502,2982
84.3159,2983
84.3815,2981
84.4472,3037
84.5128,2906
84.5785,2920
84.6441,2947
84.7098,3062
84.7754,2997
84.8411,3037
84.9067,2919
84.9724,2983
85.038,3045
85.1037,2979
85.1693,2858
85.235,2841
85.3006,3078
85.3663,2940
85.4319,2866
85.4976,2929
85.5632,2996
85.6289,3098
85.6946,3065
85.7602,3036
85.8259,2968
85.8915,2950
85.9572,3063
86.0228,2846
86.0885,3012
86.1541,3047
86.2198,2953
86.2854,3115
86.3511,3003
86.4167,3015
86.4824,2942
86.548,2958
86.6137,3044
86.6793,2937
86.745,2928
86.8106,2983
86.8763,3013
86.9419,2950
87.0076,3027
87.0732,2972
87.1389,2975
87.2045,3055
87.2702,2993
87.3358,2948
87.4015,2932
87.4671,2967
87.5328,2944
87.5984,3064
87.6641,3028
87.7297,2925
87.7954,3042
87.861,2869
87.9267,2911
87.9924,3029
88.058,2883
88.1237,2974
88.1893,2944
88.255,3008
88.3206,2958
88.3863,2901
88.4519,2948
88.5176,2830
88.5832,3052
88.6489,3046
88.7145,3104
88.7802,2937
88.8458,3036
88.9115,3019
88.9771,2951
89.0428,2993
89.1084,2913
89.1741,3079
89.2397,3007
89.3054,2965
89.371,2950
89.4367,3078
89.5023,3142
89.568,3096
89.6336,2986
89.6993,2968
89.7649,2940
89.8306,2816
89.8962,2994
89.9619,2922
90.0275,2830
90.0932,2926
90.1588,2872
90.2245,2876
90.2902,3033
90.3558,2853
90.4215,3027
90.4871,2907
90.5528,3041
90.6184,3036
90.6841,3094
90.7497,2961
90.8154,2956
90.881,2996
90.9467,2902
91.0123,2921
91.078,3065
91.1436,3006
91.2093,2872
91.2749,2930
91.3406,2934
91.4062,2983
91.4719,2938
91.5375,2877
91.6032,3044
91.6688,2947
91.7345,3005
91.8001,3011
91.8658,3027
91.9314,2934
91.9971,2972
92.0627,3040
92.1284,2877
92.194,3051
92.2597,2938
92.3253,2982
92.391,3036
92.4566,2934
92.5223,2930
92.588,2965
92.6536,3086
92.7193,2900
92.7849,2951
92.8506,3050
92.9162,3000
92.9819,2888
93.0475,2960
93.1132,2911
93.1788,2958
93.2445,2939
93.3101,2909
93.3758,2975
93.4414,2953
93.5071,2826
93.5727,2949
93.6384,2900
93.704,2976
93.7697,2944
93.8353,2883
93.901,2931
93.9666,2950
94.0323,2900
94.0979,2927
94.1636,2902
94.2292,2949
94.2949,2926
94.3605,2855
94.4262,2959
94.4918,2962
94.5575,3013
94.6231,2899
94.6888,3013
94.7544,2994
94.8201,2930
94.8858,3033
94.9514,2958
95.0171,2869
95.0827,2922
95.1484,2918
95.214,2885
95.2797,2982
95.3453,2893
95.411,2952
95.4766,3038
95.5423,2887
95.6079,3111
95.6736,2928
95.7392,2947
95.8049,2939
95.8705,2992
95.9362,2933
96.0018,2895
96.0675,2916
96.1331,2901
96.1988,2954
96.2644,3010
96.3301,2953
96.3957,2946
96.4614,2971
96.527,2984
96.5927,2946
96.6583,2966
96.724,2958
96.7896,2934
96.8553,3017
96.9209,3030
96.9866,2879
97.0522,2903
97.1179,3022
97.1835,2888
97.2492,2886
97.3149,2947
97.3805,2998
97.4462,3071
97.5118,2963
97.5775,2902
97.6431,3026
97.7088,2948
97.7744,2886
97.8401,2956
97.9057,2936
97.9714,2946
98.037,2839
98.1027,2946
98.1683,2882
98.234,2916
98.2996,2867
98.3653,2989
98.4309,2911
98.4966,2842
98.5622,3047
98.6279,2948
98.6935,2959
98.7592,3004
98.8248,2861
98.8905,2879
98.9561,2957
99.0218,2921
99.0874,2963
99.1531,2915
99.2187,2826
99.2844,2967
99.35,2994
99.4157,2889
99.4813,2916
99.547,2891
99.6127,2992
99.6783,2955
99.744,2952
99.8096,2840
99.8753,2986
99.9409,2909
99.9934,2920