File: Year 3/Mossbauer/XRD_NBS4_raw.csv
Angle,Intensity
5.00897,3208
5.07462,3240
5.14027,3295
5.20592,3377
5.27157,3224
5.33722,3352
5.40287,3343
5.46853,3392
5.53418,3382
5.59983,3528
5.66548,3619
5.73113,3570
5.79678,3730
5.86243,3521
5.92808,3682
5.99374,3758
6.05939,3795
6.12504,3787
6.19069,3940
6.25634,4001
6.32199,4003
6.38764,3906
6.4533,4059
6.51895,4165
6.5846,4110
6.65025,4201
6.7159,4189
6.78155,4316
6.8472,4416
6.91286,4375
6.97851,4484
7.04416,4552
7.10981,4585
7.17546,4615
7.24111,4537
7.30676,4589
7.37242,4615
7.43807,4718
7.50372,4749
7.56937,4693
7.63502,4692
7.70067,4864
7.76632,5066
7.83198,5077
7.89763,5024
7.96328,4948
8.02893,5149
8.09458,4930
8.16023,5073
8.22588,5236
8.29154,5184
8.35719,5135
8.42284,5340
8.48849,5299
8.55414,5125
8.61979,5229
8.68544,5417
8.7511,5579
8.81675,5497
8.8824,5532
8.94805,5695
9.0137,5569
9.07935,5686
9.145,5638
9.21066,5635
9.27631,5773
9.34196,5806
9.40761,5650
9.47326,5589
9.53891,5799
9.60456,5920
9.67022,5866
9.73587,5938
9.80152,5879
9.86717,5985
9.93282,5960
9.99847,5903
10.0641,5907
10.1298,5816
10.1954,6052
10.2611,6042
10.3267,6105
10.3924,6184
10.458,6071
10.5237,6077
10.5893,6180
10.655,6269
10.7206,6346
10.7863,6236
10.8519,6175
10.9176,6395
10.9832,6236
11.0489,6345
11.1145,6407
11.1802,6365
11.2458,6384
11.3115,6495
11.3772,6404
11.4428,6467
11.5085,6444
11.5741,6507
11.6398,6422
11.7054,6517
11.7711,6604
11.8367,6437
11.9024,6578
11.968,6663
12.0337,6527
12.0993,6727
12.165,6697
12.2306,6624
12.2963,6518
12.3619,6738
12.4276,6721
12.4932,6685
12.5589,6698
12.6245,6797
12.6902,6768
12.7558,7009
12.8215,6811
12.8871,6873
12.9528,6909
13.0184,6985
13.0841,7146
13.1497,6860
13.2154,6854
13.281,6976
13.3467,7042
13.4123,7103
13.478,6946
13.5436,7130
13.6093,6863
13.675,7292
13.7406,7100
13.8063,6975
13.8719,7298
13.9376,7312
14.0032,7131
14.0689,7290
14.1345,7317
14.2002,7268
14.2658,7342
14.3315,7239
14.3971,7351
14.4628,7274
14.5284,7247
14.5941,7403
14.6597,7237
14.7254,7377
14.791,7444
14.8567,7357
14.9223,7289
14.988,7366
15.0536,7399
15.1193,7532
15.1849,7402
15.2506,7416
15.3162,7388
15.3819,7498
15.4475,7482
15.5132,7608
15.5788,7466
15.6445,7526
15.7101,7558
15.7758,7585
15.8414,7506
15.9071,7491
15.9728,7570
16.0384,7592
16.1041,7414
16.1697,7632
16.2354,7607
16.301,7468
16.3667,7379
16.4323,7583
16.498,7427
16.5636,7393
16.6293,7568
16.6949,7445
16.7606,7372
16.8262,7472
16.8919,7496
16.9575,7434
17.0232,7344
17.0888,7367
17.1545,7501
17.2201,7367
17.2858,7504
17.3514,7319
17.4171,7390
17.4827,7445
17.5484,7365
17.614,7222
17.6797,7309
17.7453,7447
17.811,7546
17.8766,7301
17.9423,7426
18.0079,7348
18.0736,7358
18.1392,7425
18.2049,7250
18.2706,7154
18.3362,7288
18.4019,7178
18.4675,7475
18.5332,7433
18.5988,7299
18.6645,7359
18.7301,7287
18.7958,7214
18.8614,7283
18.9271,7392
18.9927,7431
19.0584,7320
19.124,7353
19.1897,7349
19.2553,7260
19.321,7315
19.3866,7326
19.4523,7296
19.5179,7418
19.5836,7473
19.6492,7356
19.7149,7265
19.7805,7291
19.8462,7455
19.9118,7290
19.9775,7531
20.0431,7218
20.1088,7233
20.1744,7335
20.2401,7326
20.3057,7189
20.3714,7293
20.437,7337
20.5027,7437
20.5684,7291
20.634,7350
20.6997,7200
20.7653,7361
20.831,7409
20.8966,7327
20.9623,7484
21.0279,7382
21.0936,7356
21.1592,7282
21.2249,7367
21.2905,7327
21.3562,7306
21.4218,7337
21.4875,7383
21.5531,7238
21.6188,7311
21.6844,7273
21.7501,7263
21.8157,7281
21.8814,7188
21.947,7318
22.0127,7431
22.0783,7284
22.144,7363
22.2096,7276
22.2753,7221
22.3409,7098
22.4066,7193
22.4722,7255
22.5379,7171
22.6035,7072
22.6692,7131
22.7348,7184
22.8005,7217
22.8661,7241
22.9318,7103
22.9975,7120
23.0631,6986
23.1288,7188
23.1944,7227
23.2601,7328
23.3257,6978
23.3914,7136
23.457,7191
23.5227,7043
23.5883,7174
23.654,7179
23.7196,7064
23.7853,7159
23.8509,6905
23.9166,7209
23.9822,7285
24.0479,7107
24.1135,7062
24.1792,6899
24.2448,6953
24.3105,7062
24.3761,6972
24.4418,7139
24.5074,6963
24.5731,7052
24.6387,6983
24.7044,7131
24.77,6937
24.8357,6922
24.9013,7068
24.967,7085
25.0326,6884
25.0983,6915
25.1639,6786
25.2296,6910
25.2953,6926
25.3609,6924
25.4266,6802
25.4922,6892
25.5579,6833
25.6235,6759
25.6892,6918
25.7548,7052
25.8205,6858
25.8861,6891
25.9518,6807
26.0174,6841
26.0831,6827
26.1487,6824
26.2144,6788
26.28,6807
26.3457,6813
26.4113,6871
26.477,6718
26.5426,6627
26.6083,6756
26.6739,6686
26.7396,6780
26.8052,6747
26.8709,6584
26.9365,6743
27.0022,6706
27.0678,6785
27.1335,6742
27.1991,6524
27.2648,6612
27.3304,6593
27.3961,6695
27.4617,6599
27.5274,6657
27.5931,6709
27.6587,6632
27.7244,6663
27.79,6619
27.8557,6591
27.9213,6703
27.987,6532
28.0526,6547
28.1183,6768
28.1839,6719
28.2496,6612
28.3152,6563
28.3809,6471
28.4465,6723
28.5122,6787
28.5778,6399
28.6435,6644
28.7091,6436
28.7748,6546
28.8404,6657
28.9061,6491
28.9717,6556
29.0374,6387
29.103,6485
29.1687,6626
29.2343,6534
29.3,6566
29.3656,6497
29.4313,6560
29.4969,6493
29.5626,6472
29.6282,6478
29.6939,6380
29.7595,6588
29.8252,6579
29.8909,6649
29.9565,6617
30.0222,6548
30.0878,6559
30.1535,6503
30.2191,6329
30.2848,6544
30.3504,6458
30.4161,6450
30.4817,6494
30.5474,6508
30.613,6623
30.6787,6326
30.7443,6460
30.81,6463
30.8756,6305
30.9413,6509
31.0069,6531
31.0726,6622
31.1382,6547
31.2039,6488
31.2695,6504
31.3352,6350
31.4008,6435
31.4665,6464
31.5321,6474
31.5978,6522
31.6634,6585
31.7291,6523
31.7947,6281
31.8604,6472
31.926,6495
31.9917,6368
32.0573,6378
32.123,6399
32.1887,6521
32.2543,6424
32.32,6494
32.3856,6387
32.4513,6478
32.5169,6472
32.5826,6586
32.6482,6496
32.7139,6455
32.7795,6515
32.8452,6438
32.9108,6395
32.9765,6539
33.0421,6619
33.1078,6513
33.1734,6431
33.2391,6458
33.3047,6498
33.3704,6365
33.436,6556
33.5017,6507
33.5673,6521
33.633,6551
33.6986,6633
33.7643,6434
33.8299,6477
33.8956,6780
33.9612,6533
34.0269,6615
34.0925,6607
34.1582,6505
34.2238,6468
34.2895,6597
34.3551,6588
34.4208,6616
34.4864,6598
34.5521,6496
34.6178,6589
34.6834,6536
34.7491,6489
34.8147,6425
34.8804,6474
34.946,6552
35.0117,6538
35.0773,6452
35.143,6421
35.2086,6484
35.2743,6546
35.3399,6476
35.4056,6557
35.4712,6661
35.5369,6402
35.6025,6435
35.6682,6535
35.7338,6521
35.7995,6528
35.8651,6521
35.9308,6574
35.9964,6482
36.0621,6550
36.1277,6358
36.1934,6338
36.259,6470
36.3247,6304
36.3903,6380
36.456,6412
36.5216,6355
36.5873,6322
36.6529,6404
36.7186,6404
36.7842,6471
36.8499,6339
36.9156,6401
36.9812,6190
37.0469,6193
37.1125,6284
37.1782,6264
37.2438,6307
37.3095,6149
37.3751,6176
37.4408,6129
37.5064,6319
37.5721,6304
37.6377,6105
37.7034,6097
37.769,6233
37.8347,6108
37.9003,6116
37.966,6191
38.0316,6238
38.0973,6152
38.1629,6054
38.2286,6088
38.2942,6083
38.3599,5914
38.4255,6020
38.4912,6021
38.5568,5975
38.6225,5899
38.6881,5984
38.7538,5889
38.8194,5884
38.8851,6067
38.9507,5857
39.0164,6042
39.082,5836
39.1477,5856
39.2134,5931
39.279,5856
39.3447,5842
39.4103,5915
39.476,5921
39.5416,5884
39.6073,5793
39.6729,5818
39.7386,5858
39.8042,5800
39.8699,5501
39.9355,5741
40.0012,5650
40.0668,5732
40.1325,5781
40.1981,5726
40.2638,5699
40.3294,5704
40.3951,5601
40.4607,5637
40.5264,5792
40.592,5532
40.6577,5664
40.7233,5538
40.789,5459
40.8546,5546
40.9203,5476
40.9859,5595
41.0516,5449
41.1172,5501
41.1829,5320
41.2485,5380
41.3142,5436
41.3798,5460
41.4455,5373
41.5112,5343
41.5768,5251
41.6425,5418
41.7081,5366
41.7738,5277
41.8394,5314
41.9051,5278
41.9707,5221
42.0364,5170
42.102,5237
42.1677,5151
42.2333,5180
42.299,5037
42.3646,5250
42.4303,5340
42.4959,5099
42.5616,5118
42.6272,5149
42.6929,4916
42.7585,5044
42.8242,5014
42.8898,5054
42.9555,5113
43.0211,5053
43.0868,5085
43.1524,5024
43.2181,4946
43.2837,4989
43.3494,4982
43.415,4893
43.4807,5137
43.5463,5005
43.612,4972
43.6776,5021
43.7433,4881
43.809,4837
43.8746,4965
43.9403,4787
44.0059,4907
44.0716,4959
44.1372,4951
44.2029,4788
44.2685,4987
44.3342,4870
44.3998,4929
44.4655,4862
44.5311,4830
44.5968,4820
44.6624,4700
44.7281,4808
44.7937,4841
44.8594,4831
44.925,4822
44.9907,4833
45.0563,4718
45.122,4812
45.1876,4708
45.2533,4632
45.3189,4844
45.3846,4810
45.4502,4805
45.5159,4728
45.5815,4781
45.6472,4629
45.7128,4663
45.7785,4669
45.8441,4737
45.9098,4806
45.9754,4605
46.0411,4804
46.1067,4669
46.1724,4688
46.2381,4587
46.3037,4647
46.3694,4637
46.435,4695
46.5007,4714
46.5663,4591
46.632,4569
46.6976,4671
46.7633,4696
46.8289,4612
46.8946,4617
46.9602,4715
47.0259,4650
47.0915,4532
47.1572,4549
47.2228,4599
47.2885,4616
47.3541,4537
47.4198,4548
47.4854,4723
47.5511,4550
47.6167,4678
47.6824,4563
47.748,4609
47.8137,4597
47.8793,4501
47.945,4638
48.0106,4576
48.0763,4577
48.1419,4479
48.2076,4456
48.2732,4540
48.3389,4495
48.4045,4458
48.4702,4495
48.5359,4553
48.6015,4637
48.6672,4661
48.7328,4502
48.7985,4511
48.8641,4558
48.9298,4554
48.9954,4545
49.0611,4547
49.1267,4578
49.1924,4430
49.258,4538
49.3237,4569
49.3893,4579
49.455,4604
49.5206,4550
49.5863,4496
49.6519,4447
49.7176,4634
49.7832,4538
49.8489,4479
49.9145,4586
49.9802,4567
50.0458,4594
50.1115,4572
50.1771,4556
50.2428,4508
50.3084,4602
50.3741,4575
50.4397,4559
50.5054,4649
50.571,4559
50.6367,4503
50.7023,4636
50.768,4620
50.8337,4633
50.8993,4431
50.965,4486
51.0306,4593
51.0963,4612
51.1619,4583
51.2276,4531
51.2932,4481
51.3589,4474
51.4245,4558
51.4902,4509
51.5558,4526
51.6215,4510
51.6871,4495
51.7528,4443
51.8184,4450
51.8841,4483
51.9497,4429
52.0154,4424
52.081,4529
52.1467,4510
52.2123,4458
52.278,4580
52.3436,4470
52.4093,4553
52.4749,4437
52.5406,4473
52.6062,4565
52.6719,4599
52.7375,4416
52.8032,4422
52.8688,4531
52.9345,4343
53.0001,4425
53.0658,4408
53.1315,4407
53.1971,4494
53.2628,4503
53.3284,4380
53.3941,4365
53.4597,4472
53.5254,4420
53.591,4493
53.6567,4459
53.7223,4339
53.788,4424
53.8536,4298
53.9193,4487
53.9849,4410
54.0506,4338
54.1162,4351
54.1819,4427
54.2475,4312
54.3132,4428
54.3788,4321
54.4445,4271
54.5101,4285
54.5758,4412
54.6414,4449
54.7071,4402
54.7727,4437
54.8384,4285
54.904,4355
54.9697,4376
55.0353,4348
55.101,4360
55.1666,4350
55.2323,4384
55.2979,4333
55.3636,4322
55.4293,4276
55.4949,4289
55.5606,4318
55.6262,4227
55.6919,4334
55.7575,4273
55.8232,4087
55.8888,4260
55.9545,4317
56.0201,4088
56.0858,4259
56.1514,4341
56.2171,4238
56.2827,4227
56.3484,4369
56.414,4283
56.4797,4351
56.5453,4088
56.611,4236
56.6766,4164
56.7423,4224
56.8079,4275
56.8736,4171
56.9392,4224
57.0049,4126
57.0705,4216
57.1362,4178
57.2018,4116
57.2675,4057
57.3331,4273
57.3988,4200
57.4644,4045
57.5301,4201
57.5957,4100
57.6614,4162
57.7271,4316
57.7927,4125
57.8584,4167
57.924,4176
57.9897,4026
58.0553,4087
58.121,4176
58.1866,4129
58.2523,4082
58.3179,4031
58.3836,4294
58.4492,4192
58.5149,4144
58.5805,4116
58.6462,4052
58.7118,4222
58.7775,4174
58.8431,4050
58.9088,4018
58.9744,4138
59.0401,4133
59.1057,3970
59.1714,3987
59.237,4067
59.3027,4122
59.3683,4085
59.434,4097
59.4996,3982
59.5653,4124
59.6309,4136
59.6966,3984
59.7622,3992
59.8279,4037
59.8935,3992
59.9592,4114
60.0248,3923
60.0905,3973
60.1562,3967
60.2218,4094
60.2875,3945
60.3531,4093
60.4188,4049
60.4844,4012
60.5501,4048
60.6157,4027
60.6814,4055
60.747,3925
60.8127,4066
60.8783,3992
60.944,3930
61.0096,3986
61.0753,4054
61.1409,3943
61.2066,3998
61.2722,4004
61.3379,4069
61.4035,3863
61.4692,4062
61.5348,3951
61.6005,3940
61.6661,4102
61.7318,4027
61.7974,3955
61.8631,3951
61.9287,4008
61.9944,3876
62.06,3972
62.1257,3964
62.1913,3902
62.257,4038
62.3226,3942
62.3883,4045
62.454,4028
62.5196,4107
62.5853,4075
62.6509,4020
62.7166,3995
62.7822,4052
62.8479,3941
62.9135,3957
62.9792,3989
63.0448,3829
63.1105,3927
63.1761,3963
63.2418,3929
63.3074,3895
63.3731,3902
63.4387,3934
63.5044,4029
63.57,3835
63.6357,3888
63.7013,3848
63.767,3904
63.8326,4030
63.8983,3831
63.9639,3888
64.0296,4027
64.0952,3948
64.1609,3949
64.2265,3927
64.2922,4018
64.3578,3884
64.4235,4008
64.4891,4049
64.5548,3985
64.6204,3846
64.6861,4041
64.7518,3985
64.8174,3894
64.8831,3907
64.9487,3829
65.0144,3937
65.08,3930
65.1457,3752
65.2113,3945
65.277,3960
65.3426,3849
65.4083,4008
65.4739,3901
65.5396,3921
65.6052,3830
65.6709,3896
65.7365,3889
65.8022,4007
65.8678,3890
65.9335,3904
65.9991,3825
66.0648,3923
66.1304,3894
66.1961,3863
66.2617,3873
66.3274,3865
66.393,3869
66.4587,3859
66.5243,3900
66.59,3909
66.6556,3721
66.7213,3898
66.7869,3829
66.8526,3949
66.9182,3935
66.9839,3888
67.0496,3825
67.1152,3818
67.1809,3921
67.2465,3741
67.3122,3914
67.3778,3943
67.4435,3798
67.5091,3878
67.5748,3893
67.6404,3823
67.7061,3891
67.7717,3869
67.8374,3902
67.903,3868
67.9687,3792
68.0343,3852
68.1,3842
68.1656,3811
68.2313,3813
68.2969,3902
68.3626,3810
68.4282,3797
68.4939,3833
68.5595,3808
68.6252,3921
68.6908,3821
68.7565,3910
68.8221,3911
68.8878,3886
68.9534,3763
69.0191,3766
69.0847,3766
69.1504,3789
69.216,3890
69.2817,3835
69.3474,3749
69.413,3868
69.4787,3706
69.5443,3865
69.61,3868
69.6756,3765
69.7413,3861
69.8069,3923
69.8726,3789
69.9382,3787
70.0039,3864
70.0695,3695
70.1352,3899
70.2008,3933
70.2665,3826
70.3321,3813
70.3978,3805
70.4634,3920
70.5291,3742
70.5947,3750
70.6604,3782
70.726,3813
70.7917,3835
70.8573,3847
70.923,3856
70.9886,3762
71.0543,3832
71.1199,3812
71.1856,3809
71.2512,3812
71.3169,3812
71.3825,3865
71.4482,3810
71.5138,3741
71.5795,3809
71.6451,3854
71.7108,3768
71.7765,3818
71.8421,3719
71.9078,3781
71.9734,3767
72.0391,3718
72.1047,3872
72.1704,3830
72.236,3812
72.3017,3864
72.3673,3754
72.433,3811
72.4986,3808
72.5643,3813
72.6299,3829
72.6956,3787
72.7612,3665
72.8269,3681
72.8925,3828
72.9582,3862
73.0238,3856
73.0895,3913
73.1551,3726
73.2208,3790
73.2864,3819
73.3521,3794
73.4177,3825
73.4834,3804
73.549,3826
73.6147,3768
73.6803,3887
73.746,3773
73.8116,3621
73.8773,3789
73.9429,3777
74.0086,3680
74.0743,3716
74.1399,3758
74.2056,3875
74.2712,3831
74.3369,3731
74.4025,3773
74.4682,3836
74.5338,3814
74.5995,3789
74.6651,3854
74.7308,3645
74.7964,3726
74.8621,3707
74.9277,3901
74.9934,3709
75.059,3784
75.1247,3775
75.1903,3734
75.256,3664
75.3216,3747
75.3873,3771
75.4529,3721
75.5186,3705
75.5842,3682
75.6499,3725
75.7155,3733
75.7812,3708
75.8468,3800
75.9125,3736
75.9781,3766
76.0438,3804
76.1094,3657
76.1751,3688
76.2407,3822
76.3064,3793
76.3721,3686
76.4377,3798
76.5034,3665
76.569,3714
76.6347,3642
76.7003,3683
76.766,3661
76.8316,3676
76.8973,3634
76.9629,3739
77.0286,3783
77.0942,3725
77.1599,3721
77.2255,3691
77.2912,3628
77.3568,3549
77.4225,3636
77.4881,3647
77.5538,3716
77.6194,3690
77.6851,3603
77.7507,3637
77.8164,3605
77.882,3562
77.9477,3616
78.0133,3708
78.079,3672
78.1446,3714
78.2103,3656
78.2759,3548
78.3416,3603
78.4072,3616
78.4729,3660
78.5385,3612
78.6042,3559
78.6699,3517
78.7355,3733
78.8012,3587
78.8668,3726
78.9325,3653
78.9981,3639
79.0638,3771
79.1294,3572
79.1951,3614
79.2607,3581
79.3264,3567
79.392,3789
79.4577,3629
79.5233,3686
79.589,3657
79.6546,3615
79.7203,3672
79.7859,3690
79.8516,3586
79.9172,3534
79.9829,3611
80.0485,3563
80.1142,3685
80.1798,3658
80.2455,3665
80.3111,3520
80.3768,3666
80.4424,3621
80.5081,3675
80.5737,3463
80.6394,3548
80.705,3535
80.7707,3596
80.8363,3484
80.902,3601
80.9677,3626
81.0333,3669
81.099,3585
81.1646,3548
81.2303,3597
81.2959,3627
81.3616,3610
81.4272,3565
81.4929,3541
81.5585,3521
81.6242,3664
81.6898,3495
81.7555,3577
81.8211,3561
81.8868,3706
81.9524,3553
82.0181,3529
82.0837,3494
82.1494,3577
82.215,3469
82.2807,3444
82.3463,3511
82.412,3499
82.4776,3535
82.5433,3568
82.6089,3630
82.6746,3544
82.7402,3570
82.80589,3560
82.8715,3529
82.9372,3582
83.0028,3518
83.0685,3476
83.1341,3503
83.1998,3526
83.2654,3571
83.3311,3584
83.3968,3494
83.4624,3610
83.5281,3470
83.5937,3481
83.6594,3488
83.725,3546
83.7907,3466
83.8563,3576
83.922,3526
83.9876,3509
84.0533,3482
84.1189,3567
84.1846,3612
84.2502,3652
84.3159,3558
84.3815,3600
84.4472,3468
84.5128,3562
84.5785,3529
84.6441,3549
84.7098,3531
84.7754,3523
84.8411,3535
84.9067,3683
84.9724,3472
85.038,3511
85.1037,3483
85.1693,3470
85.235,3448
85.3006,3602
85.3663,3522
85.4319,3449
85.4976,3545
85.5632,3576
85.6289,3585
85.6946,3526
85.7602,3526
85.8259,3532
85.8915,3552
85.9572,3528
86.0228,3481
86.0885,3487
86.1541,3440
86.2198,3450
86.2854,3534
86.3511,3564
86.4167,3600
86.4824,3537
86.548,3578
86.6137,3408
86.6793,3437
86.745,3527
86.8106,3400
86.8763,3421
86.9419,3373
87.0076,3408
87.0732,3557
87.1389,3447
87.2045,3536
87.2702,3509
87.3358,3504
87.4015,3439
87.4671,3442
87.5328,3426
87.5984,3441
87.6641,3395
87.7297,3374
87.7954,3479
87.861,3464
87.9267,3471
87.9924,3547
88.058,3487
88.1237,3355
88.1893,3483
88.255,3440
88.3206,3511
88.3863,3384
88.4519,3391
88.5176,3513
88.5832,3466
88.6489,3386
88.7145,3403
88.7802,3296
88.8458,3394
88.9115,3428
88.9771,3372
89.0428,3333
89.1084,3374
89.1741,3447
89.2397,3375
89.3054,3418
89.371,3378
89.4367,3454
89.5023,3386
89.568,3460
89.6336,3401
89.6993,3406
89.7649,3478
89.8306,3260
89.8962,3443
89.9619,3342
90.0275,3474
90.0932,3365
90.1588,3314
90.2245,3441
90.2902,3277
90.3558,3402
90.4215,3478
90.4871,3483
90.5528,3318
90.6184,3386
90.6841,3443
90.7497,3404
90.8154,3378
90.881,3379
90.9467,3403
91.0123,3308
91.078,3363
91.1436,3262
91.2093,3485
91.2749,3377
91.3406,3421
91.4062,3338
91.4719,3467
91.5375,3350
91.6032,3424
91.6688,3408
91.7345,3463
91.8001,3349
91.8658,3341
91.9314,3376
91.9971,3504
92.0627,3382
92.1284,3420
92.194,3462
92.2597,3384
92.3253,3346
92.391,3327
92.4566,3373
92.5223,3354
92.588,3343
92.6536,3352
92.7193,3370
92.7849,3330
92.8506,3456
92.9162,3381
92.9819,3488
93.0475,3341
93.1132,3472
93.1788,3393
93.2445,3355
93.3101,3353
93.3758,3472
93.4414,3433
93.5071,3364
93.5727,3492
93.6384,3332
93.704,3420
93.7697,3315
93.8353,3429
93.901,3431
93.9666,3385
94.0323,3452
94.0979,3267
94.1636,3362
94.2292,3461
94.2949,3496
94.3605,3458
94.4262,3300
94.4918,3341
94.5575,3468
94.6231,3368
94.6888,3464
94.7544,3405
94.8201,3444
94.8858,3501
94.9514,3372
95.0171,3372
95.0827,3474
95.1484,3317
95.214,3406
95.2797,3482
95.3453,3435
95.411,3413
95.4766,3431
95.5423,3456
95.6079,3331
95.6736,3429
95.7392,3299
95.8049,3421
95.8705,3346
95.9362,3465
96.0018,3423
96.0675,3431
96.1331,3464
96.1988,3463
96.2644,3398
96.3301,3587
96.3957,3432
96.4614,3460
96.527,3393
96.5927,3508
96.6583,3431
96.724,3408
96.7896,3409
96.8553,3423
96.9209,3477
96.9866,3431
97.0522,3514
97.1179,3477
97.1835,3348
97.2492,3490
97.3149,3410
97.3805,3409
97.4462,3435
97.5118,3335
97.5775,3474
97.6431,3318
97.7088,3458
97.7744,3405
97.8401,3347
97.9057,3378
97.9714,3453
98.037,3324
98.1027,3469
98.1683,3445
98.234,3488
98.2996,3504
98.3653,3560
98.4309,3425
98.4966,3453
98.5622,3402
98.6279,3431
98.6935,3503
98.7592,3363
98.8248,3498
98.8905,3421
98.9561,3387
99.0218,3477
99.0874,3435
99.1531,3519
99.2187,3413
99.2844,3374
99.35,3408
99.4157,3429
99.4813,3468
99.547,3433
99.6127,3354
99.6783,3407
99.744,3515
99.8096,3400
99.8753,3486
99.9409,3481
99.9934,3373