File: PhD Work/Raman Plotter_050524/Plot Data/UG Glasses/NBS/JC_UG_NBS2_5th_cut_bas_ther_vect_050624.csv
RamanShift,NBS2
49.85,-3.32601E-05
51.78,-5.50528E-06
53.71,2.17275E-05
55.64,7.51439E-05
57.56,0.000133716
59.49,0.000175888
61.42,0.000186516
63.35,0.000179261
65.28,0.00018452
67.21,0.000219189
69.13,0.000266969
71.06,0.000322282
72.99,0.000363299
74.92,0.000375441
76.85,0.000380986
78.78,0.000396938
80.71,0.000426065
82.63,0.000461882
84.56,0.000472293
86.49,0.000472101
88.42,0.000500655
90.35,0.000563669
92.28,0.000604989
94.2,0.00061359
96.13,0.000603827
98.06,0.000597535
99.99,0.000600695
101.92,0.000624756
103.85,0.000671633
105.78,0.000711693
107.7,0.000728676
109.63,0.000722301
111.56,0.000704994
113.49,0.000733844
115.42,0.000763368
117.35,0.000774918
119.27,0.000780217
121.2,0.000791954
123.13,0.0008317
125.06,0.000851566
126.99,0.000833752
128.92,0.000827435
130.85,0.00083128
132.77,0.000832221
134.7,0.000850261
136.63,0.000868573
138.56,0.000876008
140.49,0.000876214
142.42,0.000859471
144.34,0.000838371
146.27,0.000811821
148.2,0.000811741
150.13,0.000829334
152.06,0.000847324
153.99,0.000847297
155.92,0.000830058
157.84,0.000793692
159.77,0.000766688
161.7,0.000754965
163.63,0.000735478
165.56,0.000711674
167.49,0.000708893
169.41,0.000719626
171.34,0.000709569
173.27,0.000677468
175.2,0.0006467
177.13,0.000621555
179.06,0.000586311
180.99,0.000561549
182.91,0.000552215
184.84,0.000521103
186.77,0.000480204
188.7,0.000471497
190.63,0.000449722
192.56,0.000409274
194.48,0.000383942
196.41,0.000356288
198.34,0.000313737
200.27,0.000306997
202.2,0.000311846
204.13,0.000313386
206.06,0.000301572
207.98,0.000276513
209.91,0.000266269
211.84,0.000240974
213.77,0.000218674
215.7,0.000206807
217.63,0.000197944
219.55,0.000177515
221.48,0.0001532
223.41,0.000131719
225.34,9.03629E-05
227.27,7.04305E-05
229.2,6.33853E-05
231.13,5.67091E-05
233.05,6.30636E-05
234.98,4.39552E-05
236.91,7.73527E-06
238.84,1.43599E-06
240.77,2.22111E-05
242.7,3.22277E-05
244.62,4.693E-05
246.55,5.52424E-05
248.48,4.716E-05
250.41,3.55747E-05
252.34,4.3353E-05
254.27,6.78266E-05
256.2,8.1612E-05
258.12,5.60143E-05
260.05,5.6686E-05
261.98,0.000118096
263.91,0.000133394
265.84,0.000120476
267.77,0.000115273
269.69,0.000118416
271.62,0.000129448
273.55,0.000174665
275.48,0.000200612
277.41,0.000173094
279.34,0.000165603
281.27,0.000257954
283.19,0.000349402
285.12,0.00037074
287.05,0.000386762
288.98,0.000471572
290.91,0.000536885
292.84,0.000567837
294.76,0.000629303
296.69,0.000746136
298.62,0.000831521
300.55,0.00089623
302.48,0.000969963
304.41,0.00103164
306.34,0.001074162
308.26,0.001174257
310.19,0.001275184
312.12,0.001397611
314.05,0.001495128
315.98,0.001600785
317.91,0.001701031
319.83,0.00177266
321.76,0.001828049
323.69,0.001923067
325.62,0.002037649
327.55,0.002142578
329.48,0.002232076
331.41,0.002343968
333.33,0.002469552
335.26,0.002597064
337.19,0.002710907
339.12,0.002859642
341.05,0.00304674
342.98,0.003167212
344.91,0.003277538
346.83,0.003420339
348.76,0.003585259
350.69,0.003732736
352.62,0.003873871
354.55,0.004005702
356.48,0.004162115
358.4,0.004349688
360.33,0.004506891
362.26,0.004601857
364.19,0.00471106
366.12,0.004877289
368.05,0.005003905
369.98,0.005124823
371.9,0.005302755
373.83,0.005427849
375.76,0.005582628
377.69,0.005727572
379.62,0.005885098
381.55,0.006019652
383.47,0.006142917
385.4,0.00626129
387.33,0.006483576
389.26,0.006719848
391.19,0.006876344
393.12,0.007029902
395.05,0.007231005
396.97,0.007450965
398.9,0.007602503
400.83,0.007735005
402.76,0.007913287
404.69,0.00813349
406.62,0.008353339
408.54,0.008645089
410.47,0.008850733
412.4,0.008935018
414.33,0.009112588
416.26,0.009319037
418.19,0.009509107
420.12,0.009773694
422.04,0.01001926
423.97,0.0101559
425.9,0.0102963
427.83,0.0105371
429.76,0.0108071
431.69,0.0110107
433.61,0.0112112
435.54,0.0115089
437.47,0.0118378
439.4,0.012024
441.33,0.0122245
443.26,0.0124402
445.19,0.0127236
447.11,0.01307383
449.04,0.0134417
450.97,0.0137273
452.9,0.0140091
454.83,0.01428534
456.76,0.0144862
458.68,0.0146832
460.61,0.0150249
462.54,0.0154034
464.47,0.0157415
466.4,0.0160979
468.33,0.0163992
470.26,0.0165964
472.18,0.01687977
474.11,0.0172018
476.04,0.0174969
477.97,0.0178137
479.9,0.0181287
481.83,0.0184964
483.75,0.0188477
485.68,0.0190885
487.61,0.0192945
489.54,0.0194902
491.47,0.0196511
493.4,0.0198479
495.33,0.0201413
497.25,0.0204584
499.18,0.0206952
501.11,0.0209566
503.04,0.0212506
504.97,0.0215782
506.9,0.0218752
508.82,0.0221801
510.75,0.0225281
512.68,0.0229017
514.61,0.0232481
516.54,0.0235511
518.47,0.023886
520.4,0.0241901
522.32,0.0243804
524.25,0.0246915
526.18,0.0250707
528.11,0.0253618
530.04,0.025767
531.97,0.0263727
533.89,0.0267916
535.82,0.026981
537.75,0.0272067
539.68,0.02729237
541.61,0.0274296
543.54,0.027694
545.47,0.0278714
547.39,0.0278988
549.32,0.0278205
551.25,0.02755451
553.18,0.0273352
555.11,0.02736
557.04,0.0273063
558.96,0.02711
560.89,0.0269137
562.82,0.0265089
564.75,0.0260458
566.68,0.0256834
568.61,0.0254081
570.54,0.0251241
572.46,0.024688
574.39,0.0243489
576.32,0.0240471
578.25,0.0237157
580.18,0.0231918
582.11,0.022748
584.03,0.0224949
585.96,0.02215518
587.89,0.02169094
589.82,0.0212787
591.75,0.0210448
593.68,0.02063155
595.61,0.020274
597.53,0.02007545
599.46,0.0198659
601.39,0.0195649
603.32,0.0194076
605.25,0.0194983
607.18,0.0196425
609.1,0.0197042
611.03,0.0198899
612.96,0.0202442
614.89,0.0205841
616.82,0.0210809
618.75,0.0215228
620.68,0.0219546
622.6,0.02228836
624.53,0.0224877
626.46,0.0227277
628.39,0.0229617
630.32,0.0229406
632.25,0.0228174
634.18,0.0227391
636.1,0.0224588
638.03,0.0219997
639.96,0.0216279
641.89,0.0212167
643.82,0.0206655
645.75,0.0200145
647.67,0.0194705
649.6,0.0190801
651.53,0.01868231
653.46,0.0181855
655.39,0.01764878
657.32,0.0173421
659.25,0.0171405
661.17,0.0168243
663.1,0.016511
665.03,0.0163092
666.96,0.0160716
668.89,0.0157962
670.82,0.0155396
672.74,0.0152844
674.67,0.01500461
676.6,0.014725
678.53,0.0144859
680.46,0.0142378
682.39,0.0139835
684.32,0.0137674
686.24,0.013483
688.17,0.0133214
690.1,0.0131447
692.03,0.0129253
693.96,0.01269715
695.89,0.0125291
697.81,0.0124299
699.74,0.012316
701.67,0.0120937
703.6,0.0118431
705.53,0.0117657
707.46,0.01175787
709.39,0.0116875
711.31,0.0115412
713.24,0.0113141
715.17,0.0111137
717.1,0.0109418
719.03,0.0108158
720.96,0.0107248
722.88,0.0106327
724.81,0.0105529
726.74,0.0104491
728.67,0.0103619
730.6,0.0103515
732.53,0.0104041
734.46,0.010414
736.38,0.010394
738.31,0.0104643
740.24,0.01061389
742.17,0.0107104
744.1,0.0106858
746.03,0.0105931
747.95,0.0105159
749.88,0.01043372
751.81,0.0103067
753.74,0.01005353
755.67,0.009876562
757.6,0.009687489
759.53,0.009424649
761.45,0.009164407
763.38,0.008924139
765.31,0.008654163
767.24,0.00832303
769.17,0.00803185
771.1,0.007697868
773.02,0.007359925
774.95,0.007081384
776.88,0.006815185
778.81,0.006491557
780.74,0.006113182
782.67,0.005817032
784.6,0.005514092
786.52,0.005217151
788.45,0.005010272
790.38,0.004827908
792.31,0.004600472
794.24,0.0043748
796.17,0.004097003
798.09,0.00380591
800.02,0.003608304
801.95,0.003539618
803.88,0.003465479
805.81,0.003311204
807.74,0.003214123
809.67,0.003196464
811.59,0.003145116
813.52,0.003095104
815.45,0.003174299
817.38,0.003287663
819.31,0.003489678
821.24,0.003767508
823.16,0.004004297
825.09,0.004290241
827.02,0.004500689
828.95,0.004756943
830.88,0.005178305
832.81,0.005745466
834.74,0.006234362
836.66,0.006816303
838.59,0.007420721
840.52,0.007972561
842.45,0.00850464
844.38,0.009013246
846.31,0.009653348
848.23,0.0102703
850.16,0.010873
852.09,0.01165325
854.02,0.0122897
855.95,0.0129778
857.88,0.0136481
859.81,0.0143994
861.73,0.0152807
863.66,0.0160548
865.59,0.016929
867.52,0.0178389
869.45,0.0185693
871.38,0.01938585
873.3,0.0203348
875.23,0.0213422
877.16,0.0222848
879.09,0.0231898
881.02,0.0241774
882.95,0.025105
884.88,0.0260856
886.8,0.0271439
888.73,0.0282417
890.66,0.0292999
892.59,0.0303334
894.52,0.0313909
896.45,0.0325979
898.37,0.0339149
900.3,0.035058
902.23,0.0360693
904.16,0.0371313
906.09,0.0380431
908.02,0.0389476
909.95,0.0399162
911.87,0.04083286
913.8,0.041863
915.73,0.0429624
917.66,0.043946
919.59,0.0448246
921.52,0.0456503
923.45,0.04659
925.37,0.0476953
927.3,0.0487944
929.23,0.0496408
931.16,0.0505388
933.09,0.0512613
935.02,0.0518252
936.94,0.05253486
938.87,0.053413
940.8,0.0540835
942.73,0.0546759
944.66,0.0551414
946.59,0.0556165
948.52,0.0562277
950.44,0.0566347
952.37,0.0568718
954.3,0.057368
956.23,0.057722
958.16,0.057669
960.09,0.0577825
962.01,0.0580338
963.94,0.0579502
965.87,0.0579258
967.8,0.0579298
969.73,0.0577467
971.66,0.0577909
973.59,0.0577084
975.51,0.0574954
977.44,0.0573154
979.37,0.0571677
981.3,0.0568634
983.23,0.0565549
985.16,0.0562378
987.08,0.0559414
989.01,0.0557058
990.94,0.0554533
992.87,0.0551601
994.8,0.0549146
996.73,0.0547041
998.66,0.0542248
1000.58,0.0541535
1002.51,0.05414932
1004.44,0.05415773
1006.37,0.0541325
1008.3,0.0542058
1010.23,0.0543094
1012.15,0.054525
1014.08,0.0548723
1016.01,0.055407
1017.94,0.0558992
1019.87,0.0560698
1021.8,0.05666096
1023.73,0.05748062
1025.65,0.0581904
1027.58,0.0588047
1029.51,0.0596763
1031.44,0.0605062
1033.37,0.06128256
1035.3,0.0623892
1037.23,0.0634641
1039.15,0.0644993
1041.08,0.0655486
1043.01,0.0663085
1044.94,0.0671678
1046.87,0.0682265
1048.8,0.0690607
1050.72,0.06974437
1052.65,0.0706402
1054.58,0.0714675
1056.51,0.07218844
1058.44,0.0728908
1060.37,0.07342
1062.3,0.0736223
1064.22,0.0739935
1066.15,0.0744798
1068.08,0.0747026
1070.01,0.0746581
1071.94,0.07462224
1073.87,0.0743378
1075.79,0.0736928
1077.72,0.073045
1079.65,0.0724364
1081.58,0.07174781
1083.51,0.0711154
1085.44,0.0706267
1087.37,0.069533
1089.29,0.0681276
1091.22,0.0669612
1093.15,0.0658692
1095.08,0.0646767
1097.01,0.0630747
1098.94,0.0615162
1100.86,0.0602639
1102.79,0.0588192
1104.72,0.0569702
1106.65,0.0552285
1108.58,0.053714
1110.51,0.0522222
1112.44,0.0506483
1114.36,0.0489046
1116.29,0.04721813
1118.22,0.0459147
1120.15,0.0446049
1122.08,0.0429797
1124.01,0.0414854
1125.93,0.0401253
1127.86,0.0385008
1129.79,0.03694267
1131.72,0.0356368
1133.65,0.0344088
1135.58,0.0330323
1137.51,0.0316006
1139.43,0.0302648
1141.36,0.0290777
1143.29,0.02790807
1145.22,0.02673605
1147.15,0.0255377
1149.08,0.02438583
1151,0.0232598
1152.93,0.022108
1154.86,0.0210686
1156.79,0.0200506
1158.72,0.0189782
1160.65,0.0179194
1162.58,0.01705076
1164.5,0.0161359
1166.43,0.0151933
1168.36,0.0142809
1170.29,0.01336708
1172.22,0.01252641
1174.15,0.0118608
1176.07,0.01115737
1178,0.0104
1179.93,0.009733162
1181.86,0.009068788
1183.79,0.008401498
1185.72,0.00770152
1187.65,0.007150084
1189.57,0.00666137
1191.5,0.006116057
1193.43,0.005595606
1195.36,0.0051411
1197.29,0.004739287
1199.22,0.004283607
1201.14,0.003930388
1203.07,0.003594794
1205,0.003213573
1206.93,0.003024128
1208.86,0.002615035
1210.79,0.002367882
1212.72,0.002250313
1214.64,0.002015222
1216.57,0.001678461
1218.5,0.001505307
1220.43,0.001359389
1222.36,0.001252117
1224.29,0.001110534
1226.21,0.000895053
1228.14,0.000783084
1230.07,0.000673403
1232,0.00067104
1233.93,0.000577577
1235.86,0.00046655
1237.79,0.000452072
1239.71,0.000325981
1241.64,0.000325326
1243.57,0.000272871
1245.5,0.000234513
1247.43,0.000195914
1249.36,0.000139734
1251.28,0.000129705
1253.21,0.000145538
1255.14,0.000129365
1257.07,5.1862E-05
1259,1.19114E-05
1260.93,7.11631E-05
1262.86,0.00011005
1264.78,0.000213742
1266.71,0.000211703
1268.64,0.000239051
1270.57,0.000307781
1272.5,0.000320458
1274.43,0.000347928
1276.35,0.000366643
1278.28,0.000480488
1280.21,0.000421666
1282.14,0.000437259
1284.07,0.0006505
1286,0.000807479
1287.93,0.000829679
1289.85,0.000975537
1291.78,0.001055338
1293.71,0.00117468
1295.64,0.001336827
1297.57,0.001408436
1299.5,0.001574539
1301.42,0.001741335
1303.35,0.00183221
1305.28,0.001935587
1307.21,0.002094464
1309.14,0.002106424
1311.07,0.002266069
1313,0.00243241
1314.92,0.002627232
1316.85,0.002881405
1318.78,0.003120971
1320.71,0.003150021
1322.64,0.00336282
1324.57,0.003476504
1326.5,0.003549913
1328.42,0.003695658
1330.35,0.003879369
1332.28,0.004016549
1334.21,0.004173061
1336.14,0.004349013
1338.07,0.004405392
1339.99,0.004522217
1341.92,0.004674155
1343.85,0.004715309
1345.78,0.004807459
1347.71,0.005049882
1349.64,0.005194017
1351.57,0.005338571
1353.49,0.00542274
1355.42,0.005429825
1357.35,0.00551093
1359.28,0.00566328
1361.21,0.005738471
1363.14,0.005911031
1365.06,0.006058312
1366.99,0.00610511
1368.92,0.006122698
1370.85,0.006254449
1372.78,0.006353927
1374.71,0.006489709
1376.64,0.006520873
1378.56,0.006529138
1380.49,0.006606439
1382.42,0.006693792
1384.35,0.006698742
1386.28,0.006587672
1388.21,0.006648654
1390.13,0.006746466
1392.06,0.006804464
1393.99,0.006889267
1395.92,0.006940882
1397.85,0.006888725
1399.78,0.0067793
1401.71,0.006790348
1403.63,0.006747624
1405.56,0.006768603
1407.49,0.006914647
1409.42,0.006908747
1411.35,0.006929893
1413.28,0.006947614
1415.2,0.006778214
1417.13,0.006764852
1419.06,0.006935888
1420.99,0.006970515
1422.92,0.007036061
1424.85,0.00687159
1426.78,0.0068613
1428.7,0.006971691
1430.63,0.007054669
1432.56,0.007085934
1434.49,0.006961242
1436.42,0.006995784
1438.35,0.007099928
1440.27,0.007176635
1442.2,0.007232418
1444.13,0.007358323
1446.06,0.007484607
1447.99,0.007407633
1449.92,0.007449877
1451.85,0.007446403
1453.77,0.007570002
1455.7,0.007609009
1457.63,0.007513496
1459.56,0.007619774
1461.49,0.007562892
1463.42,0.007495017
1465.34,0.007501881
1467.27,0.007462099
1469.2,0.007397083
1471.13,0.007310213
1473.06,0.00717271
1474.99,0.007031015
1476.92,0.00678785
1478.84,0.006749755
1480.77,0.006537623
1482.7,0.006270391
1484.63,0.006114655
1486.56,0.005918304
1488.49,0.005688449
1490.41,0.005454209
1492.34,0.005321316
1494.27,0.005100042
1496.2,0.004819201
1498.13,0.004574106
1500.06,0.004353868
1501.99,0.00419922
1503.91,0.00396655
1505.84,0.003788376
1507.77,0.003520595
1509.7,0.003329816
1511.63,0.003264809
1513.56,0.003147372
1515.48,0.002921433
1517.41,0.002690756
1519.34,0.002556637
1521.27,0.002384503
1523.2,0.002249329
1525.13,0.002158842
1527.06,0.001985046
1528.98,0.001780609
1530.91,0.001753106
1532.84,0.00170274
1534.77,0.001633192
1536.7,0.001483509
1538.63,0.001310435
1540.55,0.001209476
1542.48,0.001100299
1544.41,0.001040523
1546.34,0.000884621
1548.27,0.000966428
1550.2,0.001060046
1552.13,0.00118096
1554.05,0.001611474
1555.98,0.001927156
1557.91,0.001348664
1559.84,0.000783731
1561.77,0.000411306
1563.7,0.000306377
1565.62,0.000291052
1567.55,0.000232459
1569.48,0.00030677
1571.41,6.36933E-05
1573.34,-3.44142E-06
1575.27,0.000102321
1577.2,9.4145E-05
1579.12,7.2132E-06
1581.05,-3.27818E-05
1582.98,-4.91412E-05
1584.91,9.7122E-05
1586.84,-0.000121754
1588.77,-0.000146292
1590.69,-0.000150736
1592.62,-9.15118E-05
1594.55,-5.6087E-05
1596.48,-0.000132745
1598.41,-9.13792E-07
1599.37,-4.31859E-05