File: PhD Work/Raman Plotter_050524/Plot Data/UG Glasses/NBS/JC_UG_NBS1_5th_cut_bas_ther_vect_050624.csv
RamanShift,NBS1
49.85,-0.000163984
51.78,-0.000144066
53.71,-0.000123532
55.64,-7.83709E-05
57.56,-2.84547E-05
59.49,4.48161E-06
61.42,1.48964E-06
63.35,-1.26631E-05
65.28,-1.06176E-05
67.21,1.9432E-05
69.13,5.88729E-05
71.06,0.000104714
72.99,0.000135496
74.92,0.000136273
76.85,0.000139122
78.78,0.000150331
80.71,0.000172824
82.63,0.000204203
84.56,0.00020334
86.49,0.000198704
88.42,0.000228641
90.35,0.000283913
92.28,0.000317126
94.2,0.000316909
96.13,0.000297242
98.06,0.000285111
99.99,0.000289724
101.92,0.000309906
103.85,0.000347047
105.78,0.000391937
107.7,0.000401342
109.63,0.000386349
111.56,0.000379168
113.49,0.000410456
115.42,0.000437571
117.35,0.000445458
119.27,0.000448145
121.2,0.000464341
123.13,0.000501192
125.06,0.000513897
126.99,0.000496517
128.92,0.000491677
130.85,0.000498588
132.77,0.000503995
134.7,0.000523709
136.63,0.0005503
138.56,0.000560728
140.49,0.000557639
142.42,0.000539815
144.34,0.000523189
146.27,0.000507117
148.2,0.000518036
150.13,0.000527334
152.06,0.000552193
153.99,0.000560329
155.92,0.000539894
157.84,0.000517352
159.77,0.000498198
161.7,0.000487405
163.63,0.000470321
165.56,0.000459818
167.49,0.000469292
169.41,0.000485654
171.34,0.000469167
173.27,0.000451935
175.2,0.000431961
177.13,0.000416534
179.06,0.000398977
180.99,0.000376342
182.91,0.000358896
184.84,0.000322615
186.77,0.000295993
188.7,0.0002956
190.63,0.000268534
192.56,0.000221741
194.48,0.000212742
196.41,0.000199199
198.34,0.000167076
200.27,0.000168244
202.2,0.00017811
204.13,0.000165565
206.06,0.000156115
207.98,0.000156887
209.91,0.000152745
211.84,0.000148419
213.77,0.000141642
215.7,0.000132824
217.63,0.00011878
219.55,9.66653E-05
221.48,7.65548E-05
223.41,6.52994E-05
225.34,3.20792E-05
227.27,1.65208E-05
229.2,1.82497E-05
231.13,2.68604E-05
233.05,4.83998E-05
234.98,4.29932E-05
236.91,1.0162E-05
238.84,1.39062E-06
240.77,3.22244E-05
242.7,5.42926E-05
244.62,7.97063E-05
246.55,9.72168E-05
248.48,9.82037E-05
250.41,8.49612E-05
252.34,9.62468E-05
254.27,0.000137918
256.2,0.000177537
258.12,0.000161086
260.05,0.000154852
261.98,0.000208451
263.91,0.000255168
265.84,0.000256413
267.77,0.00025727
269.69,0.000273314
271.62,0.000312044
273.55,0.000367877
275.48,0.000392621
277.41,0.000369715
279.34,0.000389122
281.27,0.000507133
283.19,0.000604056
285.12,0.000614445
287.05,0.00067761
288.98,0.000762105
290.91,0.0008262
292.84,0.000877048
294.76,0.000957797
296.69,0.001070657
298.62,0.001158875
300.55,0.001238367
302.48,0.001291127
304.41,0.001380882
306.34,0.001440004
308.26,0.001541265
310.19,0.00166893
312.12,0.001773383
314.05,0.001864428
315.98,0.001990524
317.91,0.002102353
319.83,0.002132735
321.76,0.00217008
323.69,0.002286133
325.62,0.002433323
327.55,0.002544852
329.48,0.002600612
331.41,0.002673806
333.33,0.002800165
335.26,0.002934477
337.19,0.003049386
339.12,0.003180169
341.05,0.003309648
342.98,0.003447637
344.91,0.003550259
346.83,0.003658733
348.76,0.0038012
350.69,0.003961645
352.62,0.004109041
354.55,0.004245776
356.48,0.004418849
358.4,0.004573458
360.33,0.004718435
362.26,0.004785208
364.19,0.004849661
366.12,0.005030627
368.05,0.005175232
369.98,0.005282033
371.9,0.005424186
373.83,0.005571653
375.76,0.005696431
377.69,0.005784241
379.62,0.005908896
381.55,0.006088784
383.47,0.00618553
385.4,0.006285213
387.33,0.006523182
389.26,0.00677085
391.19,0.00688639
393.12,0.007006654
395.05,0.007196823
396.97,0.007419446
398.9,0.00753826
400.83,0.007656809
402.76,0.007826648
404.69,0.008032453
406.62,0.008278099
408.54,0.00855283
410.47,0.008732056
412.4,0.00881138
414.33,0.008983046
416.26,0.009202167
418.19,0.00937236
420.12,0.009596792
422.04,0.009842682
423.97,0.009994946
425.9,0.0101434
427.83,0.0103806
429.76,0.01064592
431.69,0.0108157
433.61,0.0110024
435.54,0.0113107
437.47,0.0116507
439.4,0.0118056
441.33,0.0119824
443.26,0.0121829
445.19,0.0124536
447.11,0.01280944
449.04,0.0131852
450.97,0.0134626
452.9,0.01373791
454.83,0.0140597
456.76,0.0143017
458.68,0.0145084
460.61,0.0148424
462.54,0.0152371
464.47,0.0156507
466.4,0.0160198
468.33,0.0163245
470.26,0.01659448
472.18,0.0168855
474.11,0.0172449
476.04,0.0175734
477.97,0.0179089
479.9,0.0182894
481.83,0.0187259
483.75,0.0191799
485.68,0.0195401
487.61,0.0197729
489.54,0.0199609
491.47,0.02016963
493.4,0.02044788
495.33,0.020801
497.25,0.0211737
499.18,0.021462
501.11,0.0218239
503.04,0.0222868
504.97,0.0226517
506.9,0.0230203
508.82,0.023434
510.75,0.0238696
512.68,0.0242594
514.61,0.0246318
516.54,0.0250629
518.47,0.0255277
520.4,0.025787
522.32,0.0261356
524.25,0.02652467
526.18,0.0268768
528.11,0.0271346
530.04,0.0276175
531.97,0.0282405
533.89,0.0287091
535.82,0.0289509
537.75,0.0290687
539.68,0.0292098
541.61,0.0293618
543.54,0.0296026
545.47,0.029796
547.39,0.0299842
549.32,0.0299454
551.25,0.0296915
553.18,0.02953672
555.11,0.0296324
557.04,0.0297155
558.96,0.0296577
560.89,0.0296472
562.82,0.0294696
564.75,0.0290794
566.68,0.0288944
568.61,0.0287768
570.54,0.0285836
572.46,0.0284281
574.39,0.0281736
576.32,0.0279063
578.25,0.0276794
580.18,0.0273382
582.11,0.0271114
584.03,0.0269385
585.96,0.02664
587.89,0.02629331
589.82,0.0260074
591.75,0.0258491
593.68,0.0255649
595.61,0.02536957
597.53,0.0252647
599.46,0.0252617
601.39,0.0250973
603.32,0.0250502
605.25,0.0252816
607.18,0.0255813
609.1,0.0259472
611.03,0.0264007
612.96,0.027001
614.89,0.0276469
616.82,0.0284297
618.75,0.029098
620.68,0.0298001
622.6,0.0304241
624.53,0.0307039
626.46,0.0309578
628.39,0.0312224
630.32,0.0312031
632.25,0.0310523
634.18,0.0308572
636.1,0.0305326
638.03,0.0299676
639.96,0.0293609
641.89,0.0286353
643.82,0.02781
645.75,0.0269371
647.67,0.0261897
649.6,0.0255777
651.53,0.0249655
653.46,0.0242469
655.39,0.0234744
657.32,0.0229813
659.25,0.0226521
661.17,0.0221343
663.1,0.0216036
665.03,0.0212448
666.96,0.0208726
668.89,0.0203942
670.82,0.0199699
672.74,0.019521
674.67,0.0190439
676.6,0.0186335
678.53,0.018115
680.46,0.0176698
682.39,0.0172066
684.32,0.0167091
686.24,0.0161357
688.17,0.0157543
690.1,0.0154864
692.03,0.015199
693.96,0.0147931
695.89,0.0144694
697.81,0.0141822
699.74,0.0139081
701.67,0.0136031
703.6,0.0133465
705.53,0.0130989
707.46,0.0129876
709.39,0.0128477
711.31,0.0126018
713.24,0.01226077
715.17,0.0119354
717.1,0.01161331
719.03,0.01136502
720.96,0.01118284
722.88,0.0109308
724.81,0.0107214
726.74,0.0105877
728.67,0.0104888
730.6,0.0102753
732.53,0.0101918
734.46,0.0101511
736.38,0.010117
738.31,0.0101208
740.24,0.0100967
742.17,0.0101105
744.1,0.0100668
746.03,0.009966483
747.95,0.00985485
749.88,0.00966226
751.81,0.00942653
753.74,0.009081356
755.67,0.008884115
757.6,0.008693056
759.53,0.008313206
761.45,0.008017113
763.38,0.007736034
765.31,0.00741341
767.24,0.007108609
769.17,0.006672786
771.1,0.006244975
773.02,0.005888494
774.95,0.005609032
776.88,0.005326263
778.81,0.005072963
780.74,0.004636476
782.67,0.004291519
784.6,0.003990134
786.52,0.003554046
788.45,0.003247009
790.38,0.002990599
792.31,0.002705557
794.24,0.002420429
796.17,0.002034141
798.09,0.001603631
800.02,0.001236879
801.95,0.00104287
803.88,0.000920869
805.81,0.000698862
807.74,0.000536079
809.67,0.000365869
811.59,0.000194661
813.52,0.000167719
815.45,8.782E-05
817.38,9.32667E-07
819.31,6.33562E-05
821.24,0.000261403
823.16,0.000412116
825.09,0.000491765
827.02,0.000629214
828.95,0.000809771
830.88,0.001071051
832.81,0.001395068
834.74,0.00180449
836.66,0.0022077
838.59,0.002630578
840.52,0.003021599
842.45,0.00337358
844.38,0.003767359
846.31,0.004251789
848.23,0.004662403
850.16,0.005002359
852.09,0.005440373
854.02,0.005903637
855.95,0.006295732
857.88,0.00678165
859.81,0.007349817
861.73,0.007793323
863.66,0.008207514
865.59,0.008757613
867.52,0.009394741
869.45,0.009881218
871.38,0.0103559
873.3,0.010768
875.23,0.01153319
877.16,0.0122046
879.09,0.0126724
881.02,0.0132502
882.95,0.0137378
884.88,0.0143141
886.8,0.0149793
888.73,0.0156613
890.66,0.0162839
892.59,0.0169487
894.52,0.0175667
896.45,0.0182772
898.37,0.0190674
900.3,0.0196861
902.23,0.0202103
904.16,0.0208084
906.09,0.02128315
908.02,0.0218319
909.95,0.0225486
911.87,0.0231445
913.8,0.0237628
915.73,0.0244836
917.66,0.0251849
919.59,0.025847
921.52,0.0263833
923.45,0.0270032
925.37,0.0278153
927.3,0.0287913
929.23,0.0296453
931.16,0.0303215
933.09,0.0309284
935.02,0.0313634
936.94,0.0319374
938.87,0.0327355
940.8,0.0333058
942.73,0.03372578
944.66,0.0341932
946.59,0.0346346
948.52,0.0350419
950.44,0.035408
952.37,0.0356534
954.3,0.0359519
956.23,0.036288
958.16,0.03642262
960.09,0.0365837
962.01,0.0369725
963.94,0.036941
965.87,0.0369966
967.8,0.0371752
969.73,0.0371814
971.66,0.0375228
973.59,0.0377064
975.51,0.0378627
977.44,0.0380885
979.37,0.0383314
981.3,0.0385812
983.23,0.0386477
985.16,0.0389884
987.08,0.0392982
989.01,0.039422
990.94,0.0397654
992.87,0.0400526
994.8,0.0403832
996.73,0.0407765
998.66,0.04091725
1000.58,0.04132032
1002.51,0.0419762
1004.44,0.0425466
1006.37,0.0431449
1008.3,0.0438446
1010.23,0.0444671
1012.15,0.0451824
1014.08,0.0461249
1016.01,0.0471062
1017.94,0.0481811
1019.87,0.0492537
1021.8,0.05036604
1023.73,0.0518415
1025.65,0.0532254
1027.58,0.0545231
1029.51,0.0561319
1031.44,0.0577209
1033.37,0.0590427
1035.3,0.0608631
1037.23,0.0628793
1039.15,0.0648807
1041.08,0.0668105
1043.01,0.0685097
1044.94,0.0701458
1046.87,0.0719947
1048.8,0.07371719
1050.72,0.0754004
1052.65,0.07728505
1054.58,0.0791044
1056.51,0.0807798
1058.44,0.0822621
1060.37,0.0835938
1062.3,0.0847646
1064.22,0.0858875
1066.15,0.0872728
1068.08,0.0882593
1070.01,0.088951
1071.94,0.0897194
1073.87,0.0900178
1075.79,0.0897952
1077.72,0.0894162
1079.65,0.0890862
1081.58,0.0887676
1083.51,0.0886215
1085.44,0.0882528
1087.37,0.0873351
1089.29,0.0859203
1091.22,0.084702
1093.15,0.0834746
1095.08,0.08192642
1097.01,0.08007464
1098.94,0.0783263
1100.86,0.0767542
1102.79,0.0748531
1104.72,0.0725449
1106.65,0.0703711
1108.58,0.06843974
1110.51,0.0664328
1112.44,0.0643668
1114.36,0.0621775
1116.29,0.05999997
1118.22,0.0580802
1120.15,0.0563755
1122.08,0.054289
1124.01,0.05222681
1125.93,0.0503331
1127.86,0.0482837
1129.79,0.0461023
1131.72,0.0443701
1133.65,0.0427572
1135.58,0.04100346
1137.51,0.039324
1139.43,0.0376489
1141.36,0.0360565
1143.29,0.03446946
1145.22,0.0329684
1147.15,0.031531
1149.08,0.030102
1151,0.0285865
1152.93,0.02717114
1154.86,0.025739
1156.79,0.0243382
1158.72,0.0230645
1160.65,0.0217381
1162.58,0.0206018
1164.5,0.0196672
1166.43,0.0185771
1168.36,0.0173931
1170.29,0.0162736
1172.22,0.0152715
1174.15,0.0144504
1176.07,0.0135303
1178,0.0125978
1179.93,0.0118899
1181.86,0.0112072
1183.79,0.0103752
1185.72,0.009568089
1187.65,0.008828568
1189.57,0.008183728
1191.5,0.007604773
1193.43,0.007073411
1195.36,0.006496098
1197.29,0.006020322
1199.22,0.005512122
1201.14,0.005079318
1203.07,0.004654583
1205,0.004205565
1206.93,0.003791827
1208.86,0.003478919
1210.79,0.003262021
1212.72,0.003005086
1214.64,0.002631429
1216.57,0.002351203
1218.5,0.002022217
1220.43,0.001889303
1222.36,0.001719076
1224.29,0.001469816
1226.21,0.001252106
1228.14,0.001043495
1230.07,0.000947205
1232,0.000849601
1233.93,0.000739495
1235.86,0.000628011
1237.79,0.000531966
1239.71,0.000325225
1241.64,0.000226283
1243.57,7.80056E-05
1245.5,-6.79583E-06
1247.43,3.45991E-05
1249.36,5.81643E-05
1251.28,-0.000117967
1253.21,-8.22453E-05
1255.14,-0.00012728
1257.07,-0.000259266
1259,-0.000309519
1260.93,-0.000243049
1262.86,-0.000326905
1264.78,-0.000247186
1266.71,-0.00035333
1268.64,-0.000379637
1270.57,-0.0002937
1272.5,-0.000251851
1274.43,-0.000158197
1276.35,-4.12435E-05
1278.28,-5.9519E-05
1280.21,-0.00014897
1282.14,-0.00018667
1284.07,-0.000131105
1286,3.54622E-06
1287.93,0.000120288
1289.85,0.000189824
1291.78,0.00022
1293.71,0.000231788
1295.64,0.000284634
1297.57,0.000435464
1299.5,0.000592217
1301.42,0.000644564
1303.35,0.000627085
1305.28,0.000648014
1307.21,0.000825044
1309.14,0.000981061
1311.07,0.001034321
1313,0.001087239
1314.92,0.001219169
1316.85,0.001311116
1318.78,0.00143642
1320.71,0.00157697
1322.64,0.001622761
1324.57,0.001659063
1326.5,0.001731888
1328.42,0.001789621
1330.35,0.0018282
1332.28,0.001900473
1334.21,0.002077802
1336.14,0.002177928
1338.07,0.002225267
1339.99,0.002148436
1341.92,0.002188954
1343.85,0.002294876
1345.78,0.002388363
1347.71,0.002312614
1349.64,0.002361919
1351.57,0.00242687
1353.49,0.00258371
1355.42,0.002623543
1357.35,0.002476586
1359.28,0.002576153
1361.21,0.002714009
1363.14,0.002877651
1365.06,0.0028828
1366.99,0.002868157
1368.92,0.002965323
1370.85,0.002847903
1372.78,0.002974059
1374.71,0.003084491
1376.64,0.003082403
1378.56,0.003155031
1380.49,0.003314757
1382.42,0.003361554
1384.35,0.003359786
1386.28,0.003335214
1388.21,0.003545291
1390.13,0.003573745
1392.06,0.003565868
1393.99,0.003715358
1395.92,0.003724259
1397.85,0.003802365
1399.78,0.003880837
1401.71,0.003982857
1403.63,0.003979989
1405.56,0.003907195
1407.49,0.003953814
1409.42,0.004233631
1411.35,0.004431335
1413.28,0.004429692
1415.2,0.00432172
1417.13,0.004256665
1419.06,0.004389668
1420.99,0.004684885
1422.92,0.004617573
1424.85,0.004715742
1426.78,0.004990399
1428.7,0.005036559
1430.63,0.00493343
1432.56,0.00502748
1434.49,0.005112036
1436.42,0.005268993
1438.35,0.005512344
1440.27,0.005699276
1442.2,0.005787429
1444.13,0.005883223
1446.06,0.005972962
1447.99,0.006177347
1449.92,0.006196431
1451.85,0.006306122
1453.77,0.006448393
1455.7,0.006594775
1457.63,0.006644885
1459.56,0.006653942
1461.49,0.006827773
1463.42,0.006810466
1465.34,0.00679423
1467.27,0.006879939
1469.2,0.006945592
1471.13,0.006836049
1473.06,0.006642203
1474.99,0.006543831
1476.92,0.006389268
1478.84,0.006228256
1480.77,0.006013753
1482.7,0.005831397
1484.63,0.005677794
1486.56,0.005485219
1488.49,0.00531789
1490.41,0.00498284
1492.34,0.004754847
1494.27,0.004541432
1496.2,0.004248938
1498.13,0.004032263
1500.06,0.003917086
1501.99,0.00366129
1503.91,0.003522142
1505.84,0.003350489
1507.77,0.003015467
1509.7,0.002757009
1511.63,0.002637653
1513.56,0.002453153
1515.48,0.002236558
1517.41,0.002155951
1519.34,0.001895995
1521.27,0.001676925
1523.2,0.001561748
1525.13,0.001525123
1527.06,0.001541544
1528.98,0.001388959
1530.91,0.001195965
1532.84,0.001093051
1534.77,0.00109189
1536.7,0.000950134
1538.63,0.00073446
1540.55,0.000662275
1542.48,0.000508382
1544.41,0.000347932
1546.34,0.000358036
1548.27,0.000358383
1550.2,0.000420791
1552.13,0.000731195
1554.05,0.001268353
1555.98,0.001360211
1557.91,0.001012386
1559.84,0.000195967
1561.77,-2.69085E-06
1563.7,4.44925E-05
1565.62,6.28479E-05
1567.55,0.000147658
1569.48,0.000149331
1571.41,-2.04503E-06
1573.34,0.0001055
1575.27,0.000167767
1577.2,3.33793E-05
1579.12,-7.76132E-06
1581.05,0.000114242
1582.98,1.50034E-05
1584.91,0.000160988
1586.84,0.000147236
1588.77,0.000207439
1590.69,0.000314572
1592.62,0.000413432
1594.55,0.000437187
1596.48,0.000408927
1598.41,0.000371624
1599.37,0.000392043