File: PhD Work/Raman Plotter_050524/Plot Data/UG Glasses/NBS/JC_UG_NBS3_5th_cut_bas_ther_vect_050624.csv
RamanShift,NBS3
49.85,-0.000158567
51.78,-0.000131472
53.71,-0.000112664
55.64,-7.19589E-05
57.56,-1.90687E-05
59.49,2.67096E-05
61.42,4.24808E-05
63.35,2.96963E-05
65.28,1.58058E-05
67.21,2.59944E-05
69.13,6.21124E-05
71.06,0.000107917
72.99,0.000144814
74.92,0.00016721
76.85,0.000172607
78.78,0.000175518
80.71,0.000187827
82.63,0.000213929
84.56,0.00021959
86.49,0.000210743
88.42,0.000223258
90.35,0.000268891
92.28,0.0003136
94.2,0.000328805
96.13,0.000317064
98.06,0.000309444
99.99,0.000299709
101.92,0.000302497
103.85,0.000330991
105.78,0.000372738
107.7,0.00040094
109.63,0.00040141
111.56,0.00037397
113.49,0.000381913
115.42,0.000403501
117.35,0.000416411
119.27,0.000420393
121.2,0.000434865
123.13,0.000472494
125.06,0.000487057
126.99,0.000466564
128.92,0.000457006
130.85,0.000456012
132.77,0.000450653
134.7,0.000458748
136.63,0.000476787
138.56,0.000484065
140.49,0.000484498
142.42,0.000479776
144.34,0.000458996
146.27,0.000429291
148.2,0.000428243
150.13,0.000438426
152.06,0.000455059
153.99,0.000458387
155.92,0.000445557
157.84,0.000422434
159.77,0.000397624
161.7,0.0003871
163.63,0.000375565
165.56,0.00034894
167.49,0.000345858
169.41,0.000359772
171.34,0.000350372
173.27,0.000322362
175.2,0.000308203
177.13,0.000301555
179.06,0.000275079
180.99,0.00025546
182.91,0.000248448
184.84,0.00022305
186.77,0.000200653
188.7,0.000201847
190.63,0.000180667
192.56,0.000139608
194.48,0.000124659
196.41,0.000111856
198.34,7.94072E-05
200.27,7.79893E-05
202.2,8.88878E-05
204.13,8.50743E-05
206.06,8.26761E-05
207.98,8.56374E-05
209.91,7.9177E-05
211.84,7.57742E-05
213.77,7.31924E-05
215.7,7.17141E-05
217.63,7.13911E-05
219.55,5.63829E-05
221.48,4.31869E-05
223.41,4.28856E-05
225.34,2.54693E-05
227.27,4.74297E-07
229.2,2.73083E-06
231.13,2.82365E-05
233.05,2.98391E-05
234.98,1.87329E-05
236.91,-7.81248E-06
238.84,-1.23271E-05
240.77,6.63114E-06
242.7,4.38396E-05
244.62,8.58197E-05
246.55,0.000102248
248.48,0.000103946
250.41,0.000106882
252.34,0.000132152
254.27,0.000172097
256.2,0.000191083
258.12,0.000182573
260.05,0.000189714
261.98,0.000240621
263.91,0.000279038
265.84,0.00027195
267.77,0.000271428
269.69,0.000290396
271.62,0.000319091
273.55,0.000379567
275.48,0.000398743
277.41,0.000359123
279.34,0.000391012
281.27,0.000486089
283.19,0.000570859
285.12,0.000602385
287.05,0.000655586
288.98,0.000740652
290.91,0.000802281
292.84,0.000843228
294.76,0.000919787
296.69,0.001035834
298.62,0.001125149
300.55,0.001204694
302.48,0.001270468
304.41,0.001374011
306.34,0.001433929
308.26,0.001529168
310.19,0.001651887
312.12,0.001756948
314.05,0.001842522
315.98,0.001964278
317.91,0.002088407
319.83,0.002131826
321.76,0.002193263
323.69,0.002327338
325.62,0.002452522
327.55,0.002557954
329.48,0.002656073
331.41,0.002784535
333.33,0.002924175
335.26,0.003078297
337.19,0.003222638
339.12,0.003389328
341.05,0.00355936
342.98,0.003715051
344.91,0.003824742
346.83,0.003959124
348.76,0.004149801
350.69,0.004332403
352.62,0.004522041
354.55,0.004686312
356.48,0.004832357
358.4,0.00502927
360.33,0.005201929
362.26,0.005297356
364.19,0.005403873
366.12,0.005605514
368.05,0.005758472
369.98,0.005886735
371.9,0.006066462
373.83,0.006221184
375.76,0.00637471
377.69,0.006511827
379.62,0.006673655
381.55,0.006821701
383.47,0.006996968
385.4,0.007136526
387.33,0.007364129
389.26,0.007635056
391.19,0.007751567
393.12,0.00789773
395.05,0.008118792
396.97,0.008324912
398.9,0.008477235
400.83,0.008643822
402.76,0.008847783
404.69,0.009062543
406.62,0.009306477
408.54,0.009593571
410.47,0.00980708
412.4,0.00993755
414.33,0.0100863
416.26,0.0102945
418.19,0.0105145
420.12,0.0108074
422.04,0.0110395
423.97,0.0111742
425.9,0.01133794
427.83,0.0116046
429.76,0.0118386
431.69,0.0120418
433.61,0.0122279
435.54,0.0124986
437.47,0.0128023
439.4,0.0129809
441.33,0.0131932
443.26,0.0134092
445.19,0.0136718
447.11,0.0140601
449.04,0.01438549
450.97,0.0146203
452.9,0.0149007
454.83,0.0152164
456.76,0.0154199
458.68,0.0156079
460.61,0.0159342
462.54,0.0162758
464.47,0.0166378
466.4,0.0169733
468.33,0.0172353
470.26,0.017431
472.18,0.0176613
474.11,0.0179859
476.04,0.01826081
477.97,0.0185088
479.9,0.0188064
481.83,0.0191499
483.75,0.0195115
485.68,0.0197851
487.61,0.0199382
489.54,0.0200489
491.47,0.0201304
493.4,0.0202846
495.33,0.0205652
497.25,0.0208563
499.18,0.02102596
501.11,0.0212615
503.04,0.0216136
504.97,0.0218474
506.9,0.02211912
508.82,0.0224252
510.75,0.0227544
512.68,0.0230781
514.61,0.023353
516.54,0.02366335
518.47,0.02401688
520.4,0.0242119
522.32,0.02443027
524.25,0.0247212
526.18,0.0250548
528.11,0.0253262
530.04,0.0257628
531.97,0.0263981
533.89,0.026874
535.82,0.0271037
537.75,0.0272335
539.68,0.0273283
541.61,0.0275203
543.54,0.0278068
545.47,0.0279752
547.39,0.0280964
549.32,0.0280247
551.25,0.0277219
553.18,0.0274942
555.11,0.02757239
557.04,0.0275502
558.96,0.0273233
560.89,0.0271232
562.82,0.0267788
564.75,0.0262747
566.68,0.0259017
568.61,0.0256252
570.54,0.02533727
572.46,0.0249776
574.39,0.0245935
576.32,0.0242191
578.25,0.023889
580.18,0.023464
582.11,0.0230467
584.03,0.0227911
585.96,0.0224386
587.89,0.0219698
589.82,0.0215688
591.75,0.0212802
593.68,0.0208609
595.61,0.0205181
597.53,0.0202642
599.46,0.0200226
601.39,0.0196552
603.32,0.0194024
605.25,0.0193719
607.18,0.0193568
609.1,0.0193144
611.03,0.0193356
612.96,0.0195001
614.89,0.019709
616.82,0.0199871
618.75,0.0202084
620.68,0.0204575
622.6,0.0206587
624.53,0.0207531
626.46,0.0208868
628.39,0.0210695
630.32,0.0210475
632.25,0.0209478
634.18,0.0208443
636.1,0.0206992
638.03,0.0203749
639.96,0.0200569
641.89,0.0197948
643.82,0.0193527
645.75,0.0188274
647.67,0.0184154
649.6,0.0181302
651.53,0.0178237
653.46,0.0174681
655.39,0.01701101
657.32,0.0167334
659.25,0.01666604
661.17,0.01642
663.1,0.0161248
665.03,0.01597105
666.96,0.0158388
668.89,0.015676
670.82,0.0155287
672.74,0.0153269
674.67,0.015115
676.6,0.0150259
678.53,0.0148193
680.46,0.0146606
682.39,0.0145092
684.32,0.0143513
686.24,0.0140887
688.17,0.0139377
690.1,0.0138955
692.03,0.0138643
693.96,0.0137277
695.89,0.0135708
697.81,0.0134741
699.74,0.0134087
701.67,0.0132999
703.6,0.0132096
705.53,0.0131235
707.46,0.0131753
709.39,0.0132036
711.31,0.01312746
713.24,0.0129464
715.17,0.01287
717.1,0.0127755
719.03,0.0126507
720.96,0.0125409
722.88,0.0125146
724.81,0.0125245
726.74,0.01252346
728.67,0.0124936
730.6,0.0123898
732.53,0.0124013
734.46,0.0124743
736.38,0.0125433
738.31,0.01264167
740.24,0.012728
742.17,0.01284392
744.1,0.01288786
746.03,0.0128815
747.95,0.0128832
749.88,0.0127947
751.81,0.0126222
753.74,0.0124101
755.67,0.0123541
757.6,0.012252
759.53,0.0120288
761.45,0.0118412
763.38,0.0116697
765.31,0.0114463
767.24,0.0111707
769.17,0.0108727
771.1,0.0105873
773.02,0.0103583
774.95,0.0101881
776.88,0.009982719
778.81,0.009787772
780.74,0.009428567
782.67,0.009168017
784.6,0.008948928
786.52,0.008664011
788.45,0.008447794
790.38,0.00829782
792.31,0.008134755
794.24,0.007997847
796.17,0.007800796
798.09,0.007480582
800.02,0.007251581
801.95,0.007214109
803.88,0.007213223
805.81,0.00716293
807.74,0.007144735
809.67,0.00712946
811.59,0.007064186
813.52,0.007074952
815.45,0.007146732
817.38,0.007229854
819.31,0.007428267
821.24,0.007754037
823.16,0.008032518
825.09,0.008249153
827.02,0.008468575
828.95,0.008761073
830.88,0.009207333
832.81,0.00975731
834.74,0.0103313
836.66,0.0108648
838.59,0.0114598
840.52,0.0120451
842.45,0.01256677
844.38,0.0131143
846.31,0.013809
848.23,0.0144728
850.16,0.0151042
852.09,0.01586135
854.02,0.01669055
855.95,0.0173898
857.88,0.018146
859.81,0.0190351
861.73,0.0198683
863.66,0.0206728
865.59,0.021564
867.52,0.0225919
869.45,0.0234726
871.38,0.0243376
873.3,0.0253314
875.23,0.0265974
877.16,0.0277552
879.09,0.0287472
881.02,0.029846
882.95,0.0308262
884.88,0.0318944
886.8,0.0331121
888.73,0.03438711
890.66,0.0355724
892.59,0.0367866
894.52,0.0380473
896.45,0.0393745
898.37,0.0407572
900.3,0.0420378
902.23,0.0432127
904.16,0.0442994
906.09,0.0451858
908.02,0.0461715
909.95,0.0473431
911.87,0.04844617
913.8,0.0494559
915.73,0.0505718
917.66,0.051633
919.59,0.0525686
921.52,0.0533168
923.45,0.0542477
925.37,0.0553491
927.3,0.0564911
929.23,0.0573568
931.16,0.0580709
933.09,0.0588086
935.02,0.05935262
936.94,0.0600024
938.87,0.06086287
940.8,0.0615401
942.73,0.0619912
944.66,0.0623968
946.59,0.062853
948.52,0.0633752
950.44,0.0635401
952.37,0.0638202
954.3,0.0641201
956.23,0.0643598
958.16,0.06433
960.09,0.0644051
962.01,0.0646157
963.94,0.0643373
965.87,0.064146
967.8,0.0640325
969.73,0.0636708
971.66,0.0635465
973.59,0.0631847
975.51,0.0628879
977.44,0.0626609
979.37,0.0622527
981.3,0.0617157
983.23,0.0610628
985.16,0.06068943
987.08,0.0602237
989.01,0.0595524
990.94,0.0591552
992.87,0.0586431
994.8,0.0581581
996.73,0.0577711
998.66,0.0570847
1000.58,0.0566691
1002.51,0.0565577
1004.44,0.0563782
1006.37,0.0560997
1008.3,0.05588259
1010.23,0.0556598
1012.15,0.055599
1014.08,0.0556512
1016.01,0.0558188
1017.94,0.0560011
1019.87,0.0559954
1021.8,0.0564086
1023.73,0.0568816
1025.65,0.0572264
1027.58,0.0575313
1029.51,0.0581032
1031.44,0.0585033
1033.37,0.0588433
1035.3,0.0595312
1037.23,0.060249
1039.15,0.0609097
1041.08,0.0615527
1043.01,0.0620339
1044.94,0.0623886
1046.87,0.0629909
1048.8,0.0634559
1050.72,0.0638208
1052.65,0.0644874
1054.58,0.0649275
1056.51,0.0652911
1058.44,0.0655124
1060.37,0.0656234
1062.3,0.0656909
1064.22,0.06581856
1066.15,0.0659273
1068.08,0.0659834
1070.01,0.06587644
1071.94,0.065691
1073.87,0.0651705
1075.79,0.0645552
1077.72,0.0637845
1079.65,0.0629961
1081.58,0.06229322
1083.51,0.0619175
1085.44,0.0612685
1087.37,0.0602859
1089.29,0.0591242
1091.22,0.0580886
1093.15,0.0569596
1095.08,0.0557502
1097.01,0.054451
1098.94,0.0531549
1100.86,0.0520503
1102.79,0.050827
1104.72,0.049341
1106.65,0.0477905
1108.58,0.0464033
1110.51,0.0450814
1112.44,0.043781
1114.36,0.04235577
1116.29,0.0408665
1118.22,0.0396195
1120.15,0.0385583
1122.08,0.0372675
1124.01,0.0359523
1125.93,0.0346517
1127.86,0.0332657
1129.79,0.0319445
1131.72,0.03085338
1133.65,0.0297886
1135.58,0.028574
1137.51,0.0273825
1139.43,0.0262404
1141.36,0.025244
1143.29,0.0241787
1145.22,0.0231518
1147.15,0.0222023
1149.08,0.0212583
1151,0.0201045
1152.93,0.0191567
1154.86,0.0182411
1156.79,0.0172706
1158.72,0.01634221
1160.65,0.0154514
1162.58,0.0145812
1164.5,0.0139524
1166.43,0.0131933
1168.36,0.0123301
1170.29,0.0115421
1172.22,0.0108722
1174.15,0.0102564
1176.07,0.009600672
1178,0.008912519
1179.93,0.008381172
1181.86,0.007912643
1183.79,0.007269387
1185.72,0.006668684
1187.65,0.006133484
1189.57,0.005684213
1191.5,0.005273706
1193.43,0.004881848
1195.36,0.004485884
1197.29,0.004101124
1199.22,0.003773421
1201.14,0.003513308
1203.07,0.003175579
1205,0.002846833
1206.93,0.002588747
1208.86,0.002311704
1210.79,0.002188378
1212.72,0.002093093
1214.64,0.001831722
1216.57,0.001551337
1218.5,0.001329736
1220.43,0.001289742
1222.36,0.001187058
1224.29,0.001018691
1226.21,0.000907355
1228.14,0.000798422
1230.07,0.000715505
1232,0.000714155
1233.93,0.000652158
1235.86,0.000563569
1237.79,0.000541106
1239.71,0.000406932
1241.64,0.000339062
1243.57,0.000190976
1245.5,0.000184217
1247.43,0.000263352
1249.36,0.00024627
1251.28,0.000132296
1253.21,0.000185294
1255.14,0.000198128
1257.07,0.00012724
1259,6.97872E-05
1260.93,5.30317E-05
1262.86,-2.35524E-05
1264.78,0.000158865
1266.71,3.87515E-05
1268.64,1.42095E-05
1270.57,0.000157184
1272.5,0.000237618
1274.43,0.000304745
1276.35,0.000311429
1278.28,0.000357138
1280.21,0.000295059
1282.14,0.000285661
1284.07,0.000396061
1286,0.000507043
1287.93,0.000529194
1289.85,0.000632654
1291.78,0.000736779
1293.71,0.000821782
1295.64,0.000926971
1297.57,0.001077858
1299.5,0.001243609
1301.42,0.001330702
1303.35,0.001367315
1305.28,0.001418425
1307.21,0.001623713
1309.14,0.001807093
1311.07,0.00186547
1313,0.0020245
1314.92,0.002195611
1316.85,0.002310119
1318.78,0.002488596
1320.71,0.002673662
1322.64,0.002798803
1324.57,0.002852076
1326.5,0.0029347
1328.42,0.003026353
1330.35,0.00316236
1332.28,0.003366166
1334.21,0.003600111
1336.14,0.003711958
1338.07,0.003880112
1339.99,0.003972321
1341.92,0.004094679
1343.85,0.004155524
1345.78,0.004231524
1347.71,0.004370182
1349.64,0.004515401
1351.57,0.004625571
1353.49,0.004816575
1355.42,0.004921908
1357.35,0.004887064
1359.28,0.004990142
1361.21,0.005195831
1363.14,0.005414455
1365.06,0.005495047
1366.99,0.005527859
1368.92,0.005630512
1370.85,0.005581992
1372.78,0.00564277
1374.71,0.005649039
1376.64,0.005679822
1378.56,0.005783935
1380.49,0.005885641
1382.42,0.005877409
1384.35,0.005853844
1386.28,0.005787188
1388.21,0.005868405
1390.13,0.005887949
1392.06,0.005895488
1393.99,0.005955863
1395.92,0.005873585
1397.85,0.005856457
1399.78,0.005833092
1401.71,0.005872211
1403.63,0.005779854
1405.56,0.005649813
1407.49,0.005651311
1409.42,0.005722073
1411.35,0.005802648
1413.28,0.00581726
1415.2,0.005572309
1417.13,0.005447191
1419.06,0.00559159
1420.99,0.005692045
1422.92,0.005541166
1424.85,0.005549409
1426.78,0.005682519
1428.7,0.005598016
1430.63,0.00540114
1432.56,0.005428724
1434.49,0.005398489
1436.42,0.005387546
1438.35,0.005438031
1440.27,0.005482044
1442.2,0.005461635
1444.13,0.005473664
1446.06,0.005498831
1447.99,0.005546962
1449.92,0.005438471
1451.85,0.005424539
1453.77,0.005433339
1455.7,0.005465455
1457.63,0.005441772
1459.56,0.005408152
1461.49,0.005463634
1463.42,0.005350599
1465.34,0.005217068
1467.27,0.005219497
1469.2,0.00530843
1471.13,0.005227802
1473.06,0.00495662
1474.99,0.004928642
1476.92,0.004763258
1478.84,0.004680956
1480.77,0.00447763
1482.7,0.004327484
1484.63,0.004224088
1486.56,0.003998713
1488.49,0.003897824
1490.41,0.003555609
1492.34,0.003365312
1494.27,0.003218632
1496.2,0.003030563
1498.13,0.002838449
1500.06,0.002703849
1501.99,0.002702463
1503.91,0.002570425
1505.84,0.002321258
1507.77,0.002140151
1509.7,0.001986046
1511.63,0.001821062
1513.56,0.001697086
1515.48,0.001565551
1517.41,0.00144423
1519.34,0.001329472
1521.27,0.001207366
1523.2,0.001098836
1525.13,0.001056426
1527.06,0.001055946
1528.98,0.000904309
1530.91,0.000766452
1532.84,0.000649276
1534.77,0.000694038
1536.7,0.000604647
1538.63,0.000422907
1540.55,0.000435419
1542.48,0.000306086
1544.41,0.00015853
1546.34,0.000149516
1548.27,0.00017262
1550.2,0.000231583
1552.13,0.000405417
1554.05,0.000777035
1555.98,0.00116092
1557.91,0.001074319
1559.84,0.000377756
1561.77,2.21267E-05
1563.7,-7.04674E-05
1565.62,-9.83247E-05
1567.55,-6.43219E-05
1569.48,-7.75027E-05
1571.41,-0.000152683
1573.34,-0.000122266
1575.27,-4.42211E-05
1577.2,-0.000211313
1579.12,-0.000280137
1581.05,-0.000121151
1582.98,-0.00017514
1584.91,-8.09869E-06
1586.84,-0.000161829
1588.77,-0.000112622
1590.69,-8.20162E-05
1592.62,-2.88406E-05
1594.55,3.93611E-05
1596.48,4.07323E-05
1598.41,-2.13327E-05
1599.37,3.43849E-06