File: PhD Work/Raman Plotter_050524/Plot Data/UG Glasses/NBS/JC_UG_NBS4_5th_cut_bas_ther_vect_050624.csv
RamanShift,NBS4
49.85,-2.76994E-05
51.78,8.79218E-06
53.71,3.61355E-05
55.64,9.37121E-05
57.56,0.000166053
59.49,0.000228162
61.42,0.00024901
63.35,0.000236599
65.28,0.000225981
67.21,0.000246973
69.13,0.000299654
71.06,0.000363016
72.99,0.000414302
74.92,0.000444226
76.85,0.000450791
78.78,0.00045829
80.71,0.000480778
82.63,0.000520496
84.56,0.000534686
86.49,0.000529901
88.42,0.000548512
90.35,0.000609025
92.28,0.000665869
94.2,0.000685629
96.13,0.000672122
98.06,0.00066534
99.99,0.000655913
101.92,0.000666658
103.85,0.000710631
105.78,0.000762975
107.7,0.000793846
109.63,0.000790622
111.56,0.000756999
113.49,0.000770387
115.42,0.00080342
117.35,0.000823269
119.27,0.000822518
121.2,0.000844283
123.13,0.000884714
125.06,0.000894575
126.99,0.000871416
128.92,0.000863409
130.85,0.000864346
132.77,0.00085873
134.7,0.000862355
136.63,0.000880503
138.56,0.000892273
140.49,0.000896284
142.42,0.000885756
144.34,0.000856248
146.27,0.000820778
148.2,0.000821015
150.13,0.000832857
152.06,0.000852222
153.99,0.000853936
155.92,0.000831576
157.84,0.000788392
159.77,0.000757125
161.7,0.00074589
163.63,0.000729326
165.56,0.000707766
167.49,0.000699459
169.41,0.000705805
171.34,0.000709252
173.27,0.000668246
175.2,0.000633037
177.13,0.000612612
179.06,0.000585341
180.99,0.00056049
182.91,0.000552717
184.84,0.000526265
186.77,0.000492453
188.7,0.000489541
190.63,0.000462081
192.56,0.000412228
194.48,0.00039102
196.41,0.000364957
198.34,0.000322105
200.27,0.000314189
202.2,0.000314864
204.13,0.000307451
206.06,0.000303438
207.98,0.000301211
209.91,0.000279442
211.84,0.000262657
213.77,0.000251412
215.7,0.000242233
217.63,0.000227326
219.55,0.000210287
221.48,0.000188155
223.41,0.00016731
225.34,0.000145157
227.27,0.000112859
229.2,0.000100922
231.13,0.000108459
233.05,9.8531E-05
234.98,6.76047E-05
236.91,1.81166E-05
238.84,-1.15347E-06
240.77,2.36128E-05
242.7,4.97572E-05
244.62,7.42604E-05
246.55,7.54795E-05
248.48,4.82436E-05
250.41,4.1243E-05
252.34,5.96247E-05
254.27,8.40944E-05
256.2,8.66333E-05
258.12,6.60334E-05
260.05,6.25205E-05
261.98,9.91336E-05
263.91,0.000109161
265.84,6.6991E-05
267.77,4.70605E-05
269.69,5.98763E-05
271.62,6.08826E-05
273.55,8.31672E-05
275.48,8.71663E-05
277.41,4.63852E-05
279.34,3.08852E-05
281.27,0.00011563
283.19,0.000195928
285.12,0.000202674
287.05,0.000226567
288.98,0.000280924
290.91,0.000325902
292.84,0.000362194
294.76,0.000425492
296.69,0.000525837
298.62,0.000604294
300.55,0.000674267
302.48,0.000715972
304.41,0.000773795
306.34,0.000806813
308.26,0.00089559
310.19,0.001011123
312.12,0.001104354
314.05,0.001175726
315.98,0.001280308
317.91,0.00138434
319.83,0.001401198
321.76,0.001451739
323.69,0.001588106
325.62,0.001714311
327.55,0.001798599
329.48,0.001881115
331.41,0.001993186
333.33,0.002104989
335.26,0.002262736
337.19,0.002409861
339.12,0.002567275
341.05,0.002718187
342.98,0.002878885
344.91,0.002983645
346.83,0.003097364
348.76,0.003270581
350.69,0.003463913
352.62,0.003642763
354.55,0.003796729
356.48,0.003965463
358.4,0.004153147
360.33,0.004308017
362.26,0.004392664
364.19,0.004498216
366.12,0.004710255
368.05,0.004851208
369.98,0.004972536
371.9,0.005159191
373.83,0.005295829
375.76,0.00543033
377.69,0.005542206
379.62,0.005681624
381.55,0.005835838
383.47,0.005995963
385.4,0.006131013
387.33,0.006357393
389.26,0.006600094
391.19,0.006688441
393.12,0.006828367
395.05,0.007058259
396.97,0.007273231
398.9,0.007403297
400.83,0.007542426
402.76,0.007733938
404.69,0.007956339
406.62,0.008215088
408.54,0.008487687
410.47,0.008683921
412.4,0.008818536
414.33,0.008941658
416.26,0.009156035
418.19,0.009356564
420.12,0.009609719
422.04,0.009844595
423.97,0.0100057
425.9,0.0101491
427.83,0.0103674
429.76,0.01062962
431.69,0.01081261
433.61,0.0109843
435.54,0.0112413
437.47,0.0115187
439.4,0.0116886
441.33,0.0118962
443.26,0.0121054
445.19,0.0123539
447.11,0.012716
449.04,0.0130242
450.97,0.0132615
452.9,0.0135467
454.83,0.01383349
456.76,0.0140249
458.68,0.0141816
460.61,0.01448696
462.54,0.0148684
464.47,0.0151774
466.4,0.0154734
468.33,0.0157137
470.26,0.0158726
472.18,0.0160996
474.11,0.0163407
476.04,0.0165613
477.97,0.0168208
479.9,0.0170792
481.83,0.0173916
483.75,0.0177039
485.68,0.0179074
487.61,0.01801964
489.54,0.0181144
491.47,0.0181398
493.4,0.0182237
495.33,0.0184614
497.25,0.01871402
499.18,0.0188228
501.11,0.0189912
503.04,0.01928286
504.97,0.0194654
506.9,0.0196871
508.82,0.0199405
510.75,0.0202048
512.68,0.0204442
514.61,0.0206614
516.54,0.02091808
518.47,0.0212361
520.4,0.0214554
522.32,0.0216149
524.25,0.0218535
526.18,0.0221554
528.11,0.0224085
530.04,0.0228152
531.97,0.0233719
533.89,0.0237892
535.82,0.0240134
537.75,0.02418648
539.68,0.0242163
541.61,0.024323
543.54,0.0245294
545.47,0.0246317
547.39,0.0247189
549.32,0.0245847
551.25,0.0242355
553.18,0.0239484
555.11,0.0238478
557.04,0.0236809
558.96,0.0234262
560.89,0.0231914
562.82,0.0227298
564.75,0.0221659
566.68,0.021695
568.61,0.02128532
570.54,0.02087
572.46,0.0204265
574.39,0.0199479
576.32,0.0194682
578.25,0.0190317
580.18,0.0185176
582.11,0.0179996
584.03,0.0176212
585.96,0.0171611
587.89,0.01660333
589.82,0.0160963
591.75,0.01568508
593.68,0.0151728
595.61,0.0147341
597.53,0.0143657
599.46,0.0139886
601.39,0.01350498
603.32,0.0131422
605.25,0.0129832
607.18,0.0127975
609.1,0.0126055
611.03,0.0124774
612.96,0.01248701
614.89,0.0125612
616.82,0.0126426
618.75,0.0127328
620.68,0.01288194
622.6,0.0129828
624.53,0.0129751
626.46,0.0129827
628.39,0.0130481
630.32,0.01296502
632.25,0.0128225
634.18,0.0126755
636.1,0.0124987
638.03,0.0122006
639.96,0.0119058
641.89,0.0115771
643.82,0.0111677
645.75,0.0107338
647.67,0.0103654
649.6,0.0100501
651.53,0.009791341
653.46,0.009463277
655.39,0.009084999
657.32,0.008874193
659.25,0.008752545
661.17,0.008513464
663.1,0.008277218
665.03,0.008169988
666.96,0.00806801
668.89,0.007906935
670.82,0.007813855
672.74,0.007659585
674.67,0.007485078
676.6,0.007463754
678.53,0.00730288
680.46,0.007208105
682.39,0.007120508
684.32,0.007011077
686.24,0.006832383
688.17,0.006782683
690.1,0.006786434
692.03,0.006794956
693.96,0.006762215
695.89,0.006620013
697.81,0.006516329
699.74,0.006465132
701.67,0.006406748
703.6,0.006376294
705.53,0.006291659
707.46,0.006375021
709.39,0.006453739
711.31,0.006429108
713.24,0.006348007
715.17,0.006310684
717.1,0.006254087
719.03,0.006176299
720.96,0.006115112
722.88,0.006152109
724.81,0.006118
726.74,0.006153342
728.67,0.006244859
730.6,0.006180433
732.53,0.00624064
734.46,0.006354178
736.38,0.006475331
738.31,0.006597266
740.24,0.006651978
742.17,0.006800117
744.1,0.006886148
746.03,0.006925691
747.95,0.00697248
749.88,0.006872427
751.81,0.006751545
753.74,0.00657308
755.67,0.006516201
757.6,0.006436734
759.53,0.006196057
761.45,0.006079506
763.38,0.005960358
765.31,0.005749011
767.24,0.005496954
769.17,0.005207564
771.1,0.0049087
773.02,0.004671942
774.95,0.004509387
776.88,0.004334354
778.81,0.004192413
780.74,0.003845052
782.67,0.003583626
784.6,0.003391631
786.52,0.003071044
788.45,0.002903219
790.38,0.002761495
792.31,0.002616884
794.24,0.002522103
796.17,0.002352259
798.09,0.0021263
800.02,0.001960049
801.95,0.001911322
803.88,0.001882082
805.81,0.001828769
807.74,0.001862847
809.67,0.001869088
811.59,0.001841191
813.52,0.001931844
815.45,0.002029063
817.38,0.002151102
819.31,0.002385492
821.24,0.002745422
823.16,0.003095138
825.09,0.003344504
827.02,0.003710321
828.95,0.004111172
830.88,0.004568032
832.81,0.005129034
834.74,0.005842847
836.66,0.006529362
838.59,0.007219853
840.52,0.007897442
842.45,0.00857044
844.38,0.009304077
846.31,0.0100989
848.23,0.010898
850.16,0.0117271
852.09,0.0126461
854.02,0.0135509
855.95,0.0144907
857.88,0.0155087
859.81,0.0166077
861.73,0.017667
863.66,0.0186629
865.59,0.0198077
867.52,0.0210611
869.45,0.0221506
871.38,0.0232853
873.3,0.0244916
875.23,0.0261239
877.16,0.0275922
879.09,0.0288177
881.02,0.030263
882.95,0.03156198
884.88,0.0330063
886.8,0.03459
888.73,0.0362183
890.66,0.0377851
892.59,0.039267
894.52,0.040793
896.45,0.04247
898.37,0.0442505
900.3,0.04583028
902.23,0.0472922
904.16,0.0488234
906.09,0.0501592
908.02,0.0515111
909.95,0.0529943
911.87,0.054403
913.8,0.0556514
915.73,0.0571161
917.66,0.0585712
919.59,0.0597446
921.52,0.0606626
923.45,0.0618227
925.37,0.0631623
927.3,0.0645873
929.23,0.065717
931.16,0.0664683
933.09,0.06739931
935.02,0.06809
936.94,0.0688065
938.87,0.0697099
940.8,0.0704698
942.73,0.0710077
944.66,0.0714745
946.59,0.0719553
948.52,0.0725084
950.44,0.07278862
952.37,0.0730677
954.3,0.0733599
956.23,0.0736207
958.16,0.0735458
960.09,0.07345
962.01,0.073523
963.94,0.0731263
965.87,0.0727664
967.8,0.0724317
969.73,0.0718459
971.66,0.0714978
973.59,0.0709431
975.51,0.0704091
977.44,0.0699257
979.37,0.0692614
981.3,0.0683664
983.23,0.0675096
985.16,0.0667605
987.08,0.0659419
989.01,0.0650578
990.94,0.0643181
992.87,0.0636413
994.8,0.062831
996.73,0.0620887
998.66,0.0611574
1000.58,0.0605251
1002.51,0.0602094
1004.44,0.0596975
1006.37,0.0591874
1008.3,0.05883
1010.23,0.058404
1012.15,0.0580781
1014.08,0.0578727
1016.01,0.05779095
1017.94,0.0577747
1019.87,0.0576214
1021.8,0.0577107
1023.73,0.0581144
1025.65,0.058233
1027.58,0.0582768
1029.51,0.0586665
1031.44,0.058884
1033.37,0.0589579
1035.3,0.0592822
1037.23,0.0597494
1039.15,0.0602258
1041.08,0.0606195
1043.01,0.0607973
1044.94,0.060884
1046.87,0.0612638
1048.8,0.06148414
1050.72,0.0614985
1052.65,0.0617053
1054.58,0.0619935
1056.51,0.0620808
1058.44,0.0619999
1060.37,0.0618228
1062.3,0.0615905
1064.22,0.0615255
1066.15,0.0614092
1068.08,0.0612039
1070.01,0.0608892
1071.94,0.0605611
1073.87,0.0599455
1075.79,0.0592233
1077.72,0.0583486
1079.65,0.0574492
1081.58,0.05660835
1083.51,0.0560377
1085.44,0.055406
1087.37,0.0544115
1089.29,0.0533039
1091.22,0.0522552
1093.15,0.0510674
1095.08,0.04991478
1097.01,0.0487562
1098.94,0.0476041
1100.86,0.0465251
1102.79,0.0453178
1104.72,0.0439417
1106.65,0.0425264
1108.58,0.0412594
1110.51,0.04008429
1112.44,0.0389067
1114.36,0.0375854
1116.29,0.0362435
1118.22,0.0350696
1120.15,0.034068
1122.08,0.0328443
1124.01,0.0316271
1125.93,0.03047971
1127.86,0.0292271
1129.79,0.0280327
1131.72,0.0269457
1133.65,0.0260219
1135.58,0.0250142
1137.51,0.0238329
1139.43,0.0227816
1141.36,0.0217935
1143.29,0.0208629
1145.22,0.0199775
1147.15,0.0190665
1149.08,0.0181451
1151,0.0170978
1152.93,0.0162273
1154.86,0.015284
1156.79,0.01435534
1158.72,0.0135798
1160.65,0.0127284
1162.58,0.0119806
1164.5,0.0113812
1166.43,0.0106842
1168.36,0.009901514
1170.29,0.00915679
1172.22,0.008549265
1174.15,0.007980649
1176.07,0.007351828
1178,0.006755648
1179.93,0.006311393
1181.86,0.005826484
1183.79,0.00527808
1185.72,0.00478884
1187.65,0.004278038
1189.57,0.003826819
1191.5,0.00349429
1193.43,0.003222364
1195.36,0.002808544
1197.29,0.002504471
1199.22,0.002205671
1201.14,0.00197474
1203.07,0.001742838
1205,0.001473566
1206.93,0.001239603
1208.86,0.001051136
1210.79,0.000961688
1212.72,0.000871849
1214.64,0.000684723
1216.57,0.000500154
1218.5,0.000388612
1220.43,0.00035055
1222.36,0.000281993
1224.29,0.000192884
1226.21,0.000123695
1228.14,3.35847E-06
1230.07,5.23176E-05
1232,0.000118473
1233.93,9.9631E-05
1235.86,0.000111445
1237.79,0.000174645
1239.71,3.22542E-05
1241.64,-7.38513E-07
1243.57,-2.69931E-05
1245.5,-1.60014E-06
1247.43,0.000103419
1249.36,0.000177656
1251.28,7.85718E-05
1253.21,0.000118228
1255.14,0.000220776
1257.07,0.000257347
1259,0.000220545
1260.93,0.000152014
1262.86,0.000199155
1264.78,0.000429564
1266.71,0.000346873
1268.64,0.000316859
1270.57,0.000410675
1272.5,0.000497745
1274.43,0.00064915
1276.35,0.000783323
1278.28,0.000796617
1280.21,0.000788481
1282.14,0.00079463
1284.07,0.000876193
1286,0.001087586
1287.93,0.001133953
1289.85,0.001252719
1291.78,0.001437076
1293.71,0.001542347
1295.64,0.001618935
1297.57,0.001826858
1299.5,0.002093923
1301.42,0.002223116
1303.35,0.002290541
1305.28,0.00241323
1307.21,0.002668696
1309.14,0.002869878
1311.07,0.002990621
1313,0.00316726
1314.92,0.003392681
1316.85,0.00362638
1318.78,0.003868395
1320.71,0.004029288
1322.64,0.004261738
1324.57,0.004356635
1326.5,0.004538057
1328.42,0.004720062
1330.35,0.004914066
1332.28,0.0051427
1334.21,0.005364587
1336.14,0.005579723
1338.07,0.005863832
1339.99,0.0059515
1341.92,0.006142211
1343.85,0.006337385
1345.78,0.006399596
1347.71,0.006618882
1349.64,0.006785252
1351.57,0.006913806
1353.49,0.007165869
1355.42,0.007303217
1357.35,0.007213161
1359.28,0.007412948
1361.21,0.007586266
1363.14,0.007799034
1365.06,0.007891845
1366.99,0.007938214
1368.92,0.008051112
1370.85,0.008031339
1372.78,0.008129062
1374.71,0.008211355
1376.64,0.008215168
1378.56,0.008230737
1380.49,0.008281906
1382.42,0.008297607
1384.35,0.008313321
1386.28,0.008225746
1388.21,0.008273088
1390.13,0.008272645
1392.06,0.00824428
1393.99,0.008235731
1395.92,0.008114833
1397.85,0.008109942
1399.78,0.008125065
1401.71,0.008099897
1403.63,0.007949385
1405.56,0.007778051
1407.49,0.007723572
1409.42,0.007815013
1411.35,0.007862005
1413.28,0.007856115
1415.2,0.007588872
1417.13,0.007377903
1419.06,0.00742424
1420.99,0.007507606
1422.92,0.007319852
1424.85,0.007320868
1426.78,0.007474539
1428.7,0.007330997
1430.63,0.007046154
1432.56,0.006996703
1434.49,0.006876376
1436.42,0.006888788
1438.35,0.006901252
1440.27,0.00695541
1442.2,0.006909316
1444.13,0.0068085
1446.06,0.006753505
1447.99,0.006786626
1449.92,0.006680729
1451.85,0.006684203
1453.77,0.0065945
1455.7,0.00653842
1457.63,0.006507544
1459.56,0.006374426
1461.49,0.006496507
1463.42,0.00632014
1465.34,0.006143103
1467.27,0.006205305
1469.2,0.006272032
1471.13,0.00607235
1473.06,0.005755642
1474.99,0.005653522
1476.92,0.005538048
1478.84,0.005439411
1480.77,0.005257994
1482.7,0.005062923
1484.63,0.004914978
1486.56,0.004783932
1488.49,0.004613091
1490.41,0.004305941
1492.34,0.004107311
1494.27,0.003929911
1496.2,0.003729872
1498.13,0.003559961
1500.06,0.003398259
1501.99,0.003222709
1503.91,0.003077527
1505.84,0.002993946
1507.77,0.00275005
1509.7,0.002540908
1511.63,0.002446982
1513.56,0.002294638
1515.48,0.002132804
1517.41,0.002073502
1519.34,0.001937641
1521.27,0.001787802
1523.2,0.001668978
1525.13,0.001617445
1527.06,0.001619989
1528.98,0.001518358
1530.91,0.001366447
1532.84,0.00127309
1534.77,0.00125225
1536.7,0.001140119
1538.63,0.001004752
1540.55,0.001019949
1542.48,0.000870149
1544.41,0.000715241
1546.34,0.000752985
1548.27,0.000726344
1550.2,0.000759609
1552.13,0.001042637
1554.05,0.001576702
1555.98,0.002015142
1557.91,0.001790583
1559.84,0.000955503
1561.77,0.000457948
1563.7,0.00030431
1565.62,0.000299876
1567.55,0.000337576
1569.48,0.000323768
1571.41,0.000182961
1573.34,0.000253618
1575.27,0.00032451
1577.2,0.000126283
1579.12,4.10182E-05
1581.05,0.000197252
1582.98,0.000135541
1584.91,0.000316243
1586.84,9.25067E-05
1588.77,0.00013532
1590.69,0.000163957
1592.62,0.000183087
1594.55,0.000245454
1596.48,0.000279199
1598.41,0.000187919
1599.37,0.000219249