File: Year 3/AIT/SAMPLE2_XRD.csv
20.0065 72.0
20.0459 73.0
20.0852 63.0
20.1246 63.0
20.164 85.0
20.2034 76.0
20.2428 76.0
20.2822 69.0
20.3216 80.0
20.361 79.0
20.4004 76.0
20.4398 62.0
20.4792 74.0
20.5185 67.0
20.5579 77.0
20.5973 80.0
20.6367 84.0
20.6761 77.0
20.7155 74.0
20.7549 72.0
20.7943 74.0
20.8337 66.0
20.8731 66.0
20.9125 86.0
20.9518 71.0
20.9912 65.0
21.0306 71.0
21.07 60.0
21.1094 55.0
21.1488 71.0
21.1882 70.0
21.2276 49.0
21.267 62.0
21.3064 70.0
21.3458 55.0
21.3851 61.0
21.4245 58.0
21.4639 54.0
21.5033 75.0
21.5427 80.0
21.5821 67.0
21.6215 61.0
21.6609 74.0
21.7003 80.0
21.7397 68.0
21.7791 64.0
21.8184 43.0
21.8578 63.0
21.8972 52.0
21.9366 57.0
21.976 66.0
22.0154 46.0
22.0548 62.0
22.0942 61.0
22.1336 68.0
22.173 59.0
22.2124 56.0
22.2517 58.0
22.2911 62.0
22.3305 57.0
22.3699 62.0
22.4093 79.0
22.4487 56.0
22.4881 58.0
22.5275 67.0
22.5669 60.0
22.6063 61.0
22.6457 67.0
22.685 81.0
22.7244 54.0
22.7638 58.0
22.8032 72.0
22.8426 55.0
22.882 67.0
22.9214 63.0
22.9608 54.0
23.0002 74.0
23.0396 65.0
23.079 73.0
23.1183 64.0
23.1577 63.0
23.1971 58.0
23.2365 50.0
23.2759 52.0
23.3153 66.0
23.3547 60.0
23.3941 55.0
23.4335 62.0
23.4729 71.0
23.5123 67.0
23.5516 62.0
23.591 70.0
23.6304 58.0
23.6698 48.0
23.7092 60.0
23.7486 55.0
23.788 58.0
23.8274 63.0
23.8668 55.0
23.9062 61.0
23.9455 58.0
23.9849 67.0
24.0243 63.0
24.0637 51.0
24.1031 59.0
24.1425 64.0
24.1819 46.0
24.2213 46.0
24.2607 59.0
24.3001 54.0
24.3395 58.0
24.3788 52.0
24.4182 58.0
24.4576 45.0
24.497 58.0
24.5364 60.0
24.5758 72.0
24.6152 44.0
24.6546 54.0
24.694 52.0
24.7334 49.0
24.7728 86.0
24.8121 61.0
24.8515 52.0
24.8909 53.0
24.9303 59.0
24.9697 55.0
25.0091 50.0
25.0485 73.0
25.0879 65.0
25.1273 72.0
25.1667 64.0
25.2061 60.0
25.2454 67.0
25.2848 54.0
25.3242 57.0
25.3636 69.0
25.403 77.0
25.4424 51.0
25.4818 88.0
25.5212 87.0
25.5606 94.0
25.6 99.0
25.6394 155.0
25.6787 156.0
25.7181 143.0
25.7575 180.0
25.7969 182.0
25.8363 181.0
25.8757 231.0
25.9151 141.0
25.9545 120.0
25.9939 82.0
26.0333 65.0
26.0727 52.0
26.112 53.0
26.1514 66.0
26.1908 60.0
26.2302 63.0
26.2696 64.0
26.309 64.0
26.3484 50.0
26.3878 59.0
26.4272 39.0
26.4666 67.0
26.506 54.0
26.5453 41.0
26.5847 53.0
26.6241 45.0
26.6635 55.0
26.7029 45.0
26.7423 58.0
26.7817 56.0
26.8211 49.0
26.8605 33.0
26.8999 54.0
26.9393 55.0
26.9786 54.0
27.018 54.0
27.0574 56.0
27.0968 61.0
27.1362 60.0
27.1756 49.0
27.215 56.0
27.2544 55.0
27.2938 49.0
27.3332 60.0
27.3726 56.0
27.4119 49.0
27.4513 49.0
27.4907 51.0
27.5301 56.0
27.5695 56.0
27.6089 47.0
27.6483 61.0
27.6877 52.0
27.7271 64.0
27.7665 56.0
27.8059 47.0
27.8452 62.0
27.8846 59.0
27.924 52.0
27.9634 58.0
28.0028 47.0
28.0422 51.0
28.0816 66.0
28.121 73.0
28.1604 45.0
28.1998 41.0
28.2392 53.0
28.2785 60.0
28.3179 52.0
28.3573 45.0
28.3967 59.0
28.4361 61.0
28.4755 59.0
28.5149 63.0
28.5543 53.0
28.5937 38.0
28.6331 45.0
28.6725 52.0
28.7118 61.0
28.7512 45.0
28.7906 55.0
28.83 51.0
28.8694 44.0
28.9088 46.0
28.9482 48.0
28.9876 55.0
29.027 63.0
29.0664 36.0
29.1058 46.0
29.1451 60.0
29.1845 56.0
29.2239 39.0
29.2633 38.0
29.3027 44.0
29.3421 40.0
29.3815 58.0
29.4209 56.0
29.4603 50.0
29.4997 53.0
29.5391 43.0
29.5784 46.0
29.6178 46.0
29.6572 52.0
29.6966 43.0
29.736 52.0
29.7754 44.0
29.8148 48.0
29.8542 47.0
29.8936 62.0
29.933 48.0
29.9723 40.0
30.0117 44.0
30.0511 40.0
30.0905 36.0
30.1299 56.0
30.1693 46.0
30.2087 46.0
30.2481 50.0
30.2875 48.0
30.3269 50.0
30.3663 44.0
30.4056 47.0
30.445 49.0
30.4844 39.0
30.5238 54.0
30.5632 48.0
30.6026 58.0
30.642 50.0
30.6814 46.0
30.7208 41.0
30.7602 36.0
30.7996 34.0
30.8389 39.0
30.8783 31.0
30.9177 46.0
30.9571 46.0
30.9965 31.0
31.0359 51.0
31.0753 35.0
31.1147 63.0
31.1541 46.0
31.1935 55.0
31.2329 56.0
31.2722 47.0
31.3116 36.0
31.351 45.0
31.3904 40.0
31.4298 40.0
31.4692 40.0
31.5086 55.0
31.548 41.0
31.5874 39.0
31.6268 44.0
31.6662 62.0
31.7055 36.0
31.7449 52.0
31.7843 44.0
31.8237 40.0
31.8631 46.0
31.9025 46.0
31.9419 40.0
31.9813 42.0
32.0207 48.0
32.0601 42.0
32.0995 38.0
32.1388 42.0
32.1782 55.0
32.2176 58.0
32.257 52.0
32.2964 39.0
32.3358 32.0
32.3752 45.0
32.4146 64.0
32.454 48.0
32.4934 39.0
32.5328 39.0
32.5721 47.0
32.6115 59.0
32.6509 37.0
32.6903 40.0
32.7297 52.0
32.7691 58.0
32.8085 59.0
32.8479 65.0
32.8873 58.0
32.9267 49.0
32.9661 68.0
33.0054 51.0
33.0448 46.0
33.0842 53.0
33.1236 60.0
33.163 44.0
33.2024 64.0
33.2418 65.0
33.2812 62.0
33.3206 50.0
33.36 35.0
33.3994 38.0
33.4387 34.0
33.4781 53.0
33.5175 42.0
33.5569 46.0
33.5963 45.0
33.6357 29.0
33.6751 38.0
33.7145 43.0
33.7539 36.0
33.7933 46.0
33.8327 53.0
33.872 33.0
33.9114 47.0
33.9508 34.0
33.9902 47.0
34.0296 64.0
34.069 40.0
34.1084 47.0
34.1478 46.0
34.1872 52.0
34.2266 45.0
34.266 36.0
34.3053 39.0
34.3447 44.0
34.3841 34.0
34.4235 31.0
34.4629 34.0
34.5023 50.0
34.5417 34.0
34.5811 41.0
34.6205 34.0
34.6599 49.0
34.6993 30.0
34.7386 44.0
34.778 42.0
34.8174 35.0
34.8568 34.0
34.8962 41.0
34.9356 42.0
34.975 40.0
35.0144 36.0
35.0538 46.0
35.0932 42.0
35.1326 32.0
35.1719 36.0
35.2113 39.0
35.2507 45.0
35.2901 45.0
35.3295 39.0
35.3689 41.0
35.4083 49.0
35.4477 39.0
35.4871 46.0
35.5265 41.0
35.5659 49.0
35.6052 40.0
35.6446 31.0
35.684 40.0
35.7234 37.0
35.7628 54.0
35.8022 40.0
35.8416 41.0
35.881 37.0
35.9204 41.0
35.9598 42.0
35.9991 47.0
36.0385 52.0
36.0779 37.0
36.1173 44.0
36.1567 65.0
36.1961 39.0
36.2355 51.0
36.2749 41.0
36.3143 52.0
36.3537 54.0
36.3931 50.0
36.4324 65.0
36.4718 71.0
36.5112 104.0
36.5506 108.0
36.59 150.0
36.6294 207.0
36.6688 314.0
36.7082 537.0
36.7476 913.0
36.787 924.0
36.8264 975.0
36.8657 857.0
36.9051 652.0
36.9445 452.0
36.9839 324.0
37.0233 200.0
37.0627 121.0
37.1021 86.0
37.1415 73.0
37.1809 69.0
37.2203 58.0
37.2597 60.0
37.299 51.0
37.3384 45.0
37.3778 50.0
37.4172 47.0
37.4566 37.0
37.496 55.0
37.5354 42.0
37.5748 49.0
37.6142 45.0
37.6536 34.0
37.693 44.0
37.7323 43.0
37.7717 30.0
37.8111 45.0
37.8505 33.0
37.8899 37.0
37.9293 36.0
37.9687 36.0
38.0081 32.0
38.0475 46.0
38.0869 30.0
38.1263 33.0
38.1656 44.0
38.205 42.0
38.2444 29.0
38.2838 42.0
38.3232 35.0
38.3626 44.0
38.402 38.0
38.4414 51.0
38.4808 39.0
38.5202 43.0
38.5596 29.0
38.5989 40.0
38.6383 23.0
38.6777 28.0
38.7171 27.0
38.7565 35.0
38.7959 43.0
38.8353 30.0
38.8747 34.0
38.9141 38.0
38.9535 41.0
38.9929 28.0
39.0322 30.0
39.0716 31.0
39.111 38.0
39.1504 29.0
39.1898 37.0
39.2292 28.0
39.2686 38.0
39.308 43.0
39.3474 40.0
39.3868 37.0
39.4262 27.0
39.4655 30.0
39.5049 46.0
39.5443 32.0
39.5837 24.0
39.6231 32.0
39.6625 43.0
39.7019 39.0
39.7413 29.0
39.7807 57.0
39.8201 51.0
39.8595 26.0
39.8988 43.0
39.9382 39.0
39.9776 44.0
40.017 40.0
40.0564 40.0
40.0958 28.0
40.1352 40.0
40.1746 40.0
40.214 38.0
40.2534 31.0
40.2928 31.0
40.3321 42.0
40.3715 37.0
40.4109 34.0
40.4503 33.0
40.4897 34.0
40.5291 31.0
40.5685 36.0
40.6079 42.0
40.6473 33.0
40.6867 29.0
40.7261 25.0
40.7654 43.0
40.8048 35.0
40.8442 38.0
40.8836 23.0
40.923 20.0
40.9624 34.0
41.0018 36.0
41.0412 36.0
41.0806 25.0
41.12 25.0
41.1594 36.0
41.1987 42.0
41.2381 37.0
41.2775 50.0
41.3169 32.0
41.3563 22.0
41.3957 26.0
41.4351 28.0
41.4745 30.0
41.5139 35.0
41.5533 37.0
41.5926 40.0
41.632 25.0
41.6714 34.0
41.7108 37.0
41.7502 43.0
41.7896 34.0
41.829 24.0
41.8684 40.0
41.9078 39.0
41.9472 38.0
41.9866 32.0
42.0259 32.0
42.0653 31.0
42.1047 35.0
42.1441 39.0
42.1835 44.0
42.2229 35.0
42.2623 36.0
42.3017 45.0
42.3411 20.0
42.3805 31.0
42.4199 22.0
42.4592 25.0
42.4986 29.0
42.538 40.0
42.5774 32.0
42.6168 23.0
42.6562 30.0
42.6956 27.0
42.735 34.0
42.7744 28.0
42.8138 34.0
42.8532 32.0
42.8925 30.0
42.9319 44.0
42.9713 31.0
43.0107 30.0
43.0501 22.0
43.0895 32.0
43.1289 31.0
43.1683 30.0
43.2077 37.0
43.2471 30.0
43.2865 33.0
43.3258 24.0
43.3652 32.0
43.4046 30.0
43.444 27.0
43.4834 38.0
43.5228 38.0
43.5622 32.0
43.6016 50.0
43.641 35.0
43.6804 30.0
43.7198 38.0
43.7591 33.0
43.7985 39.0
43.8379 27.0
43.8773 25.0
43.9167 24.0
43.9561 37.0
43.9955 39.0
44.0349 29.0
44.0743 29.0
44.1137 27.0
44.1531 22.0
44.1924 37.0
44.2318 33.0
44.2712 45.0
44.3106 27.0
44.35 33.0
44.3894 22.0
44.4288 33.0
44.4682 37.0
44.5076 49.0
44.547 23.0
44.5864 30.0
44.6257 34.0
44.6651 29.0
44.7045 27.0
44.7439 19.0
44.7833 26.0
44.8227 23.0
44.8621 26.0
44.9015 42.0
44.9409 37.0
44.9803 38.0
45.0197 38.0
45.059 37.0
45.0984 46.0
45.1378 34.0
45.1772 43.0
45.2166 36.0
45.256 51.0
45.2954 41.0
45.3348 70.0
45.3742 97.0
45.4136 135.0
45.453 244.0
45.4923 336.0
45.5317 306.0
45.5711 239.0
45.6105 212.0
45.6499 105.0
45.6893 65.0
45.7287 48.0
45.7681 40.0
45.8075 35.0
45.8469 51.0
45.8863 36.0
45.9256 36.0
45.965 41.0
46.0044 38.0
46.0438 30.0
46.0832 37.0
46.1226 35.0
46.162 27.0
46.2014 32.0
46.2408 32.0
46.2802 23.0
46.3196 34.0
46.3589 41.0
46.3983 39.0
46.4377 28.0
46.4771 27.0
46.5165 23.0
46.5559 31.0
46.5953 31.0
46.6347 38.0
46.6741 25.0
46.7135 22.0
46.7529 25.0
46.7922 27.0
46.8316 22.0
46.871 34.0
46.9104 38.0
46.9498 36.0
46.9892 28.0
47.0286 33.0
47.068 29.0
47.1074 24.0
47.1468 33.0
47.1862 25.0
47.2255 20.0
47.2649 26.0
47.3043 27.0
47.3437 30.0
47.3831 37.0
47.4225 26.0
47.4619 32.0
47.5013 28.0
47.5407 32.0
47.5801 34.0
47.6194 35.0
47.6588 33.0
47.6982 41.0
47.7376 28.0
47.777 32.0
47.8164 27.0
47.8558 26.0
47.8952 35.0
47.9346 25.0
47.974 35.0
48.0134 43.0
48.0527 32.0
48.0921 32.0
48.1315 38.0
48.1709 35.0
48.2103 30.0
48.2497 28.0
48.2891 22.0
48.3285 26.0
48.3679 32.0
48.4073 18.0
48.4467 35.0
48.486 30.0
48.5254 28.0
48.5648 24.0
48.6042 24.0
48.6436 47.0
48.683 25.0
48.7224 32.0
48.7618 29.0
48.8012 31.0
48.8406 28.0
48.88 36.0
48.9193 19.0
48.9587 32.0
48.9981 33.0
49.0375 24.0
49.0769 24.0
49.1163 27.0
49.1557 25.0
49.1951 37.0
49.2345 32.0
49.2739 29.0
49.3133 34.0
49.3526 39.0
49.392 33.0
49.4314 29.0
49.4708 26.0
49.5102 34.0
49.5496 25.0
49.589 32.0
49.6284 24.0
49.6678 20.0
49.7072 27.0
49.7466 24.0
49.7859 27.0
49.8253 32.0
49.8647 24.0
49.9041 15.0
49.9435 26.0
49.9829 28.0
50.0223 20.0
50.0617 34.0
50.1011 20.0
50.1405 29.0
50.1799 23.0
50.2192 22.0
50.2586 30.0
50.298 25.0
50.3374 26.0
50.3768 26.0
50.4162 26.0
50.4556 28.0
50.495 34.0
50.5344 28.0
50.5738 30.0
50.6132 18.0
50.6525 24.0
50.6919 29.0
50.7313 23.0
50.7707 23.0
50.8101 31.0
50.8495 24.0
50.8889 13.0
50.9283 17.0
50.9677 22.0
51.0071 27.0
51.0465 24.0
51.0858 30.0
51.1252 22.0
51.1646 19.0
51.204 20.0
51.2434 29.0
51.2828 27.0
51.3222 38.0
51.3616 20.0
51.401 17.0
51.4404 32.0
51.4798 24.0
51.5191 33.0
51.5585 28.0
51.5979 24.0
51.6373 42.0
51.6767 26.0
51.7161 21.0
51.7555 30.0
51.7949 31.0
51.8343 17.0
51.8737 31.0
51.9131 29.0
51.9524 28.0
51.9918 24.0
52.0312 19.0
52.0706 27.0
52.11 23.0
52.1494 33.0
52.1888 25.0
52.2282 27.0
52.2676 21.0
52.307 30.0
52.3464 20.0
52.3857 36.0
52.4251 34.0
52.4645 38.0
52.5039 38.0
52.5433 33.0
52.5827 40.0
52.6221 49.0
52.6615 86.0
52.7009 99.0
52.7403 108.0
52.7797 99.0
52.819 86.0
52.8584 100.0
52.8978 115.0
52.9372 112.0
52.9766 100.0
53.016 117.0
53.0554 135.0
53.0948 126.0
53.1342 150.0
53.1736 210.0
53.213 221.0
53.2523 184.0
53.2917 116.0
53.3311 138.0
53.3705 115.0
53.4099 73.0
53.4493 48.0
53.4887 35.0
53.5281 43.0
53.5675 41.0
53.6069 36.0
53.6462 39.0
53.6856 21.0
53.725 33.0
53.7644 30.0
53.8038 22.0
53.8432 25.0
53.8826 19.0
53.922 27.0
53.9614 28.0
54.0008 20.0
54.0402 31.0
54.0795 34.0
54.1189 25.0
54.1583 20.0
54.1977 15.0
54.2371 17.0
54.2765 23.0
54.3159 23.0
54.3553 24.0
54.3947 26.0
54.4341 18.0
54.4735 29.0
54.5128 26.0
54.5522 27.0
54.5916 25.0
54.631 22.0
54.6704 28.0
54.7098 22.0
54.7492 30.0
54.7886 30.0
54.828 30.0
54.8674 33.0
54.9068 32.0
54.9461 23.0
54.9855 32.0
55.0249 20.0
55.0643 24.0
55.1037 29.0
55.1431 26.0
55.1825 19.0
55.2219 25.0
55.2613 22.0
55.3007 27.0
55.3401 30.0
55.3794 29.0
55.4188 26.0
55.4582 29.0
55.4976 12.0
55.537 23.0
55.5764 13.0
55.6158 25.0
55.6552 24.0
55.6946 28.0
55.734 21.0
55.7734 14.0
55.8127 35.0
55.8521 26.0
55.8915 25.0
55.9309 27.0
55.9703 23.0
56.0097 29.0
56.0491 22.0
56.0885 22.0
56.1279 18.0
56.1673 30.0
56.2067 23.0
56.246 31.0
56.2854 18.0
56.3248 18.0
56.3642 17.0
56.4036 29.0
56.443 19.0
56.4824 39.0
56.5218 21.0
56.5612 36.0
56.6006 29.0
56.64 27.0
56.6793 30.0
56.7187 27.0
56.7581 23.0
56.7975 32.0
56.8369 11.0
56.8763 17.0
56.9157 26.0
56.9551 26.0
56.9945 25.0
57.0339 33.0
57.0733 21.0
57.1126 27.0
57.152 19.0
57.1914 35.0
57.2308 26.0
57.2702 19.0
57.3096 35.0
57.349 39.0
57.3884 39.0
57.4278 17.0
57.4672 24.0
57.5066 26.0
57.5459 16.0
57.5853 20.0
57.6247 17.0
57.6641 36.0
57.7035 21.0
57.7429 21.0
57.7823 32.0
57.8217 24.0
57.8611 24.0
57.9005 23.0
57.9399 19.0
57.9792 32.0
58.0186 22.0
58.058 22.0
58.0974 34.0
58.1368 16.0
58.1762 22.0
58.2156 26.0
58.255 26.0
58.2944 27.0
58.3338 16.0
58.3732 21.0
58.4125 25.0
58.4519 20.0
58.4913 26.0
58.5307 23.0
58.5701 25.0
58.6095 33.0
58.6489 20.0
58.6883 23.0
58.7277 39.0
58.7671 27.0
58.8065 26.0
58.8458 28.0
58.8852 28.0
58.9246 21.0
58.964 31.0
59.0034 28.0
59.0428 24.0
59.0822 29.0
59.1216 26.0
59.161 32.0
59.2004 26.0
59.2397 33.0
59.2791 27.0
59.3185 33.0
59.3579 33.0
59.3973 27.0
59.4367 27.0
59.4761 46.0
59.5155 44.0
59.5549 33.0
59.5943 46.0
59.6337 41.0
59.673 39.0
59.7124 34.0
59.7518 56.0
59.7912 40.0
59.8306 48.0
59.87 48.0
59.9094 63.0
59.9488 52.0
59.9882 60.0
60.0276 61.0
60.067 54.0
60.1063 58.0
60.1457 55.0
60.1851 48.0
60.2245 35.0
60.2639 31.0
60.3033 35.0
60.3427 28.0
60.3821 12.0
60.4215 30.0
60.4609 21.0
60.5003 19.0
60.5396 17.0
60.579 27.0
60.6184 31.0
60.6578 30.0
60.6972 25.0
60.7366 27.0
60.776 16.0
60.8154 13.0
60.8548 37.0
60.8942 19.0
60.9336 18.0
60.9729 24.0
61.0123 28.0
61.0517 15.0
61.0911 31.0
61.1305 32.0
61.1699 30.0
61.2093 25.0
61.2487 27.0
61.2881 29.0
61.3275 23.0
61.3669 35.0
61.4062 26.0
61.4456 17.0
61.485 20.0
61.5244 20.0
61.5638 18.0
61.6032 26.0
61.6426 25.0
61.682 34.0
61.7214 21.0
61.7608 25.0
61.8002 17.0
61.8395 28.0
61.8789 18.0
61.9183 21.0
61.9577 23.0
61.9971 30.0
62.0365 21.0
62.0759 22.0
62.1153 29.0
62.1547 26.0
62.1941 27.0
62.2335 31.0
62.2728 18.0
62.3122 9.0
62.3516 32.0
62.391 24.0
62.4304 19.0
62.4698 26.0
62.5092 27.0
62.5486 17.0
62.588 12.0
62.6274 17.0
62.6668 20.0
62.7061 26.0
62.7455 13.0
62.7849 35.0
62.8243 25.0
62.8637 20.0
62.9031 17.0
62.9425 29.0
62.9819 21.0
63.0213 34.0
63.0607 15.0
63.1001 34.0
63.1394 19.0
63.1788 15.0
63.2182 28.0
63.2576 28.0
63.297 14.0
63.3364 20.0
63.3758 25.0
63.4152 25.0
63.4546 16.0
63.494 14.0
63.5334 23.0
63.5727 15.0
63.6121 24.0
63.6515 30.0
63.6909 20.0
63.7303 23.0
63.7697 17.0
63.8091 29.0
63.8485 22.0
63.8879 22.0
63.9273 22.0
63.9667 13.0
64.006 19.0
64.0454 25.0
64.0848 17.0
64.1242 32.0
64.1636 32.0
64.203 30.0
64.2424 14.0
64.2818 20.0
64.3212 28.0
64.3606 22.0
64.4 25.0
64.4393 33.0
64.4787 28.0
64.5181 16.0
64.5575 26.0
64.5969 28.0
64.6363 19.0
64.6757 22.0
64.7151 9.0
64.7545 17.0
64.7939 24.0
64.8333 22.0
64.8726 15.0
64.912 30.0
64.9514 13.0
64.9908 21.0
65.0302 30.0
65.0696 25.0
65.109 18.0
65.1484 22.0
65.1878 24.0
65.2272 29.0
65.2665 28.0
65.3059 24.0
65.3453 23.0
65.3847 25.0
65.4241 28.0
65.4635 32.0
65.5029 22.0
65.5423 25.0
65.5817 20.0
65.6211 20.0
65.6605 26.0
65.6998 33.0
65.7392 33.0
65.7786 25.0
65.818 39.0
65.8574 37.0
65.8968 38.0
65.9362 47.0
65.9756 57.0
66.015 65.0
66.0544 101.0
66.0938 122.0
66.1331 127.0
66.1725 137.0
66.2119 138.0
66.2513 158.0
66.2907 163.0
66.3301 153.0
66.3695 234.0
66.4089 227.0
66.4483 205.0
66.4877 167.0
66.5271 117.0
66.5664 131.0
66.6058 96.0
66.6452 68.0
66.6846 58.0
66.724 35.0
66.7634 29.0
66.8028 30.0
66.8422 22.0
66.8816 21.0
66.921 20.0
66.9604 21.0
66.9997 25.0
67.0391 21.0
67.0785 24.0
67.1179 25.0
67.1573 24.0
67.1967 32.0
67.2361 23.0
67.2755 29.0
67.3149 21.0
67.3543 17.0
67.3937 22.0
67.433 25.0
67.4724 24.0
67.5118 28.0
67.5512 20.0
67.5906 20.0
67.63 26.0
67.6694 24.0
67.7088 17.0
67.7482 26.0
67.7876 16.0
67.827 12.0
67.8663 28.0
67.9057 16.0
67.9451 35.0
67.9845 18.0
68.0239 16.0
68.0633 25.0
68.1027 24.0
68.1421 23.0
68.1815 24.0
68.2209 19.0
68.2603 13.0
68.2996 18.0
68.339 24.0
68.3784 25.0
68.4178 21.0
68.4572 31.0
68.4966 19.0
68.536 21.0
68.5754 17.0
68.6148 24.0
68.6542 12.0
68.6936 25.0
68.7329 22.0
68.7723 28.0
68.8117 16.0
68.8511 27.0
68.8905 20.0
68.9299 17.0
68.9693 29.0
69.0087 25.0
69.0481 24.0
69.0875 23.0
69.1269 27.0
69.1662 22.0
69.2056 30.0
69.245 36.0
69.2844 25.0
69.3238 14.0
69.3632 28.0
69.4026 22.0
69.442 17.0
69.4814 20.0
69.5208 21.0
69.5602 18.0
69.5995 19.0
69.6389 29.0
69.6783 25.0
69.7177 17.0
69.7571 18.0
69.7965 18.0
69.8359 20.0
69.8753 21.0
69.9147 26.0
69.9541 22.0
69.9935 19.0