File: Year 3/AIT/SAMPLE1_XRD.csv
20.0065 64.0
20.0459 64.0
20.0852 79.0
20.1246 60.0
20.164 65.0
20.2034 59.0
20.2428 67.0
20.2822 77.0
20.3216 66.0
20.361 64.0
20.4004 74.0
20.4398 55.0
20.4792 59.0
20.5185 73.0
20.5579 68.0
20.5973 70.0
20.6367 72.0
20.6761 71.0
20.7155 55.0
20.7549 74.0
20.7943 72.0
20.8337 61.0
20.8731 61.0
20.9125 64.0
20.9518 59.0
20.9912 58.0
21.0306 64.0
21.07 66.0
21.1094 65.0
21.1488 56.0
21.1882 61.0
21.2276 61.0
21.267 70.0
21.3064 44.0
21.3458 55.0
21.3851 49.0
21.4245 67.0
21.4639 62.0
21.5033 55.0
21.5427 60.0
21.5821 65.0
21.6215 52.0
21.6609 65.0
21.7003 62.0
21.7397 70.0
21.7791 55.0
21.8184 64.0
21.8578 66.0
21.8972 60.0
21.9366 64.0
21.976 64.0
22.0154 65.0
22.0548 56.0
22.0942 64.0
22.1336 67.0
22.173 62.0
22.2124 53.0
22.2517 61.0
22.2911 54.0
22.3305 68.0
22.3699 68.0
22.4093 63.0
22.4487 65.0
22.4881 59.0
22.5275 45.0
22.5669 64.0
22.6063 60.0
22.6457 59.0
22.685 64.0
22.7244 65.0
22.7638 62.0
22.8032 55.0
22.8426 52.0
22.882 67.0
22.9214 52.0
22.9608 46.0
23.0002 67.0
23.0396 69.0
23.079 56.0
23.1183 64.0
23.1577 52.0
23.1971 53.0
23.2365 52.0
23.2759 61.0
23.3153 60.0
23.3547 62.0
23.3941 59.0
23.4335 58.0
23.4729 48.0
23.5123 47.0
23.5516 57.0
23.591 44.0
23.6304 64.0
23.6698 48.0
23.7092 65.0
23.7486 68.0
23.788 51.0
23.8274 65.0
23.8668 58.0
23.9062 68.0
23.9455 53.0
23.9849 46.0
24.0243 41.0
24.0637 62.0
24.1031 60.0
24.1425 53.0
24.1819 42.0
24.2213 47.0
24.2607 41.0
24.3001 66.0
24.3395 53.0
24.3788 50.0
24.4182 58.0
24.4576 40.0
24.497 37.0
24.5364 53.0
24.5758 55.0
24.6152 60.0
24.6546 58.0
24.694 55.0
24.7334 66.0
24.7728 62.0
24.8121 69.0
24.8515 64.0
24.8909 48.0
24.9303 42.0
24.9697 52.0
25.0091 53.0
25.0485 61.0
25.0879 52.0
25.1273 46.0
25.1667 49.0
25.2061 48.0
25.2454 46.0
25.2848 61.0
25.3242 56.0
25.3636 63.0
25.403 66.0
25.4424 75.0
25.4818 54.0
25.5212 51.0
25.5606 81.0
25.6 87.0
25.6394 122.0
25.6787 138.0
25.7181 155.0
25.7575 153.0
25.7969 152.0
25.8363 187.0
25.8757 218.0
25.9151 188.0
25.9545 118.0
25.9939 81.0
26.0333 68.0
26.0727 47.0
26.112 55.0
26.1514 59.0
26.1908 48.0
26.2302 44.0
26.2696 54.0
26.309 61.0
26.3484 51.0
26.3878 57.0
26.4272 43.0
26.4666 47.0
26.506 54.0
26.5453 52.0
26.5847 40.0
26.6241 47.0
26.6635 57.0
26.7029 38.0
26.7423 53.0
26.7817 58.0
26.8211 43.0
26.8605 50.0
26.8999 48.0
26.9393 42.0
26.9786 43.0
27.018 35.0
27.0574 58.0
27.0968 47.0
27.1362 62.0
27.1756 51.0
27.215 50.0
27.2544 49.0
27.2938 61.0
27.3332 42.0
27.3726 43.0
27.4119 50.0
27.4513 52.0
27.4907 44.0
27.5301 45.0
27.5695 54.0
27.6089 41.0
27.6483 53.0
27.6877 55.0
27.7271 53.0
27.7665 37.0
27.8059 48.0
27.8452 48.0
27.8846 45.0
27.924 46.0
27.9634 53.0
28.0028 51.0
28.0422 51.0
28.0816 56.0
28.121 37.0
28.1604 38.0
28.1998 58.0
28.2392 41.0
28.2785 34.0
28.3179 37.0
28.3573 39.0
28.3967 46.0
28.4361 48.0
28.4755 51.0
28.5149 48.0
28.5543 53.0
28.5937 42.0
28.6331 46.0
28.6725 53.0
28.7118 49.0
28.7512 46.0
28.7906 52.0
28.83 48.0
28.8694 37.0
28.9088 58.0
28.9482 45.0
28.9876 40.0
29.027 51.0
29.0664 37.0
29.1058 39.0
29.1451 52.0
29.1845 43.0
29.2239 41.0
29.2633 49.0
29.3027 34.0
29.3421 47.0
29.3815 52.0
29.4209 46.0
29.4603 34.0
29.4997 44.0
29.5391 41.0
29.5784 49.0
29.6178 36.0
29.6572 42.0
29.6966 48.0
29.736 52.0
29.7754 36.0
29.8148 48.0
29.8542 51.0
29.8936 42.0
29.933 37.0
29.9723 37.0
30.0117 40.0
30.0511 32.0
30.0905 43.0
30.1299 35.0
30.1693 53.0
30.2087 54.0
30.2481 47.0
30.2875 37.0
30.3269 43.0
30.3663 44.0
30.4056 37.0
30.445 49.0
30.4844 36.0
30.5238 40.0
30.5632 45.0
30.6026 50.0
30.642 37.0
30.6814 38.0
30.7208 42.0
30.7602 32.0
30.7996 44.0
30.8389 35.0
30.8783 44.0
30.9177 53.0
30.9571 33.0
30.9965 37.0
31.0359 47.0
31.0753 44.0
31.1147 38.0
31.1541 40.0
31.1935 51.0
31.2329 30.0
31.2722 32.0
31.3116 29.0
31.351 33.0
31.3904 48.0
31.4298 42.0
31.4692 46.0
31.5086 38.0
31.548 38.0
31.5874 38.0
31.6268 33.0
31.6662 35.0
31.7055 43.0
31.7449 49.0
31.7843 37.0
31.8237 37.0
31.8631 42.0
31.9025 36.0
31.9419 51.0
31.9813 32.0
32.0207 25.0
32.0601 42.0
32.0995 40.0
32.1388 40.0
32.1782 37.0
32.2176 31.0
32.257 49.0
32.2964 47.0
32.3358 42.0
32.3752 37.0
32.4146 36.0
32.454 46.0
32.4934 32.0
32.5328 30.0
32.5721 37.0
32.6115 35.0
32.6509 57.0
32.6903 50.0
32.7297 35.0
32.7691 38.0
32.8085 34.0
32.8479 31.0
32.8873 46.0
32.9267 45.0
32.9661 44.0
33.0054 41.0
33.0448 41.0
33.0842 40.0
33.1236 43.0
33.163 46.0
33.2024 32.0
33.2418 50.0
33.2812 44.0
33.3206 54.0
33.36 38.0
33.3994 45.0
33.4387 36.0
33.4781 34.0
33.5175 38.0
33.5569 48.0
33.5963 35.0
33.6357 34.0
33.6751 39.0
33.7145 44.0
33.7539 27.0
33.7933 52.0
33.8327 44.0
33.872 38.0
33.9114 33.0
33.9508 30.0
33.9902 26.0
34.0296 38.0
34.069 31.0
34.1084 42.0
34.1478 34.0
34.1872 35.0
34.2266 46.0
34.266 32.0
34.3053 38.0
34.3447 35.0
34.3841 34.0
34.4235 38.0
34.4629 26.0
34.5023 27.0
34.5417 36.0
34.5811 39.0
34.6205 48.0
34.6599 34.0
34.6993 34.0
34.7386 35.0
34.778 34.0
34.8174 27.0
34.8568 45.0
34.8962 34.0
34.9356 35.0
34.975 37.0
35.0144 54.0
35.0538 39.0
35.0932 33.0
35.1326 25.0
35.1719 31.0
35.2113 34.0
35.2507 31.0
35.2901 24.0
35.3295 35.0
35.3689 52.0
35.4083 40.0
35.4477 34.0
35.4871 30.0
35.5265 30.0
35.5659 43.0
35.6052 41.0
35.6446 43.0
35.684 23.0
35.7234 35.0
35.7628 29.0
35.8022 50.0
35.8416 44.0
35.881 34.0
35.9204 44.0
35.9598 39.0
35.9991 45.0
36.0385 35.0
36.0779 49.0
36.1173 46.0
36.1567 27.0
36.1961 41.0
36.2355 32.0
36.2749 41.0
36.3143 50.0
36.3537 62.0
36.3931 62.0
36.4324 63.0
36.4718 63.0
36.5112 69.0
36.5506 81.0
36.59 118.0
36.6294 171.0
36.6688 231.0
36.7082 435.0
36.7476 726.0
36.787 902.0
36.8264 925.0
36.8657 838.0
36.9051 663.0
36.9445 574.0
36.9839 355.0
37.0233 245.0
37.0627 142.0
37.1021 92.0
37.1415 68.0
37.1809 51.0
37.2203 62.0
37.2597 38.0
37.299 41.0
37.3384 43.0
37.3778 33.0
37.4172 38.0
37.4566 30.0
37.496 39.0
37.5354 37.0
37.5748 26.0
37.6142 38.0
37.6536 41.0
37.693 32.0
37.7323 47.0
37.7717 35.0
37.8111 34.0
37.8505 40.0
37.8899 37.0
37.9293 24.0
37.9687 46.0
38.0081 36.0
38.0475 47.0
38.0869 32.0
38.1263 42.0
38.1656 42.0
38.205 40.0
38.2444 35.0
38.2838 40.0
38.3232 37.0
38.3626 32.0
38.402 26.0
38.4414 35.0
38.4808 27.0
38.5202 35.0
38.5596 34.0
38.5989 39.0
38.6383 26.0
38.6777 30.0
38.7171 30.0
38.7565 13.0
38.7959 38.0
38.8353 28.0
38.8747 35.0
38.9141 27.0
38.9535 42.0
38.9929 34.0
39.0322 27.0
39.0716 20.0
39.111 31.0
39.1504 32.0
39.1898 38.0
39.2292 43.0
39.2686 34.0
39.308 24.0
39.3474 26.0
39.3868 35.0
39.4262 26.0
39.4655 25.0
39.5049 22.0
39.5443 20.0
39.5837 27.0
39.6231 33.0
39.6625 26.0
39.7019 36.0
39.7413 36.0
39.7807 23.0
39.8201 35.0
39.8595 41.0
39.8988 37.0
39.9382 25.0
39.9776 28.0
40.017 23.0
40.0564 26.0
40.0958 36.0
40.1352 31.0
40.1746 25.0
40.214 45.0
40.2534 33.0
40.2928 31.0
40.3321 22.0
40.3715 19.0
40.4109 31.0
40.4503 35.0
40.4897 33.0
40.5291 29.0
40.5685 27.0
40.6079 30.0
40.6473 19.0
40.6867 39.0
40.7261 33.0
40.7654 29.0
40.8048 27.0
40.8442 37.0
40.8836 27.0
40.923 32.0
40.9624 39.0
41.0018 42.0
41.0412 26.0
41.0806 32.0
41.12 29.0
41.1594 24.0
41.1987 25.0
41.2381 25.0
41.2775 19.0
41.3169 25.0
41.3563 23.0
41.3957 25.0
41.4351 30.0
41.4745 30.0
41.5139 23.0
41.5533 19.0
41.5926 34.0
41.632 23.0
41.6714 35.0
41.7108 23.0
41.7502 36.0
41.7896 19.0
41.829 37.0
41.8684 33.0
41.9078 33.0
41.9472 26.0
41.9866 27.0
42.0259 39.0
42.0653 26.0
42.1047 22.0
42.1441 24.0
42.1835 26.0
42.2229 27.0
42.2623 26.0
42.3017 23.0
42.3411 26.0
42.3805 28.0
42.4199 33.0
42.4592 25.0
42.4986 27.0
42.538 16.0
42.5774 27.0
42.6168 18.0
42.6562 40.0
42.6956 31.0
42.735 31.0
42.7744 22.0
42.8138 24.0
42.8532 32.0
42.8925 22.0
42.9319 29.0
42.9713 37.0
43.0107 34.0
43.0501 21.0
43.0895 29.0
43.1289 27.0
43.1683 25.0
43.2077 31.0
43.2471 26.0
43.2865 29.0
43.3258 29.0
43.3652 27.0
43.4046 24.0
43.444 22.0
43.4834 32.0
43.5228 38.0
43.5622 34.0
43.6016 28.0
43.641 27.0
43.6804 34.0
43.7198 22.0
43.7591 23.0
43.7985 23.0
43.8379 25.0
43.8773 25.0
43.9167 24.0
43.9561 25.0
43.9955 21.0
44.0349 26.0
44.0743 28.0
44.1137 28.0
44.1531 29.0
44.1924 16.0
44.2318 16.0
44.2712 24.0
44.3106 22.0
44.35 22.0
44.3894 27.0
44.4288 29.0
44.4682 20.0
44.5076 23.0
44.547 24.0
44.5864 28.0
44.6257 31.0
44.6651 34.0
44.7045 36.0
44.7439 18.0
44.7833 34.0
44.8227 29.0
44.8621 30.0
44.9015 23.0
44.9409 28.0
44.9803 25.0
45.0197 29.0
45.059 26.0
45.0984 31.0
45.1378 32.0
45.1772 34.0
45.2166 21.0
45.256 33.0
45.2954 55.0
45.3348 65.0
45.3742 72.0
45.4136 127.0
45.453 198.0
45.4923 315.0
45.5317 334.0
45.5711 246.0
45.6105 182.0
45.6499 128.0
45.6893 68.0
45.7287 48.0
45.7681 33.0
45.8075 40.0
45.8469 20.0
45.8863 30.0
45.9256 21.0
45.965 31.0
46.0044 35.0
46.0438 24.0
46.0832 26.0
46.1226 27.0
46.162 37.0
46.2014 28.0
46.2408 26.0
46.2802 30.0
46.3196 37.0
46.3589 28.0
46.3983 30.0
46.4377 29.0
46.4771 36.0
46.5165 20.0
46.5559 22.0
46.5953 22.0
46.6347 25.0
46.6741 28.0
46.7135 25.0
46.7529 19.0
46.7922 32.0
46.8316 24.0
46.871 20.0
46.9104 17.0
46.9498 22.0
46.9892 14.0
47.0286 37.0
47.068 14.0
47.1074 30.0
47.1468 22.0
47.1862 18.0
47.2255 20.0
47.2649 28.0
47.3043 19.0
47.3437 24.0
47.3831 17.0
47.4225 22.0
47.4619 23.0
47.5013 20.0
47.5407 21.0
47.5801 30.0
47.6194 25.0
47.6588 20.0
47.6982 25.0
47.7376 22.0
47.777 29.0
47.8164 25.0
47.8558 15.0
47.8952 27.0
47.9346 23.0
47.974 31.0
48.0134 24.0
48.0527 27.0
48.0921 26.0
48.1315 20.0
48.1709 16.0
48.2103 20.0
48.2497 23.0
48.2891 16.0
48.3285 27.0
48.3679 31.0
48.4073 25.0
48.4467 22.0
48.486 31.0
48.5254 20.0
48.5648 24.0
48.6042 21.0
48.6436 21.0
48.683 24.0
48.7224 11.0
48.7618 22.0
48.8012 21.0
48.8406 16.0
48.88 20.0
48.9193 16.0
48.9587 15.0
48.9981 20.0
49.0375 23.0
49.0769 29.0
49.1163 20.0
49.1557 20.0
49.1951 20.0
49.2345 25.0
49.2739 29.0
49.3133 25.0
49.3526 21.0
49.392 25.0
49.4314 21.0
49.4708 18.0
49.5102 12.0
49.5496 15.0
49.589 18.0
49.6284 26.0
49.6678 20.0
49.7072 20.0
49.7466 31.0
49.7859 21.0
49.8253 16.0
49.8647 20.0
49.9041 25.0
49.9435 26.0
49.9829 27.0
50.0223 26.0
50.0617 21.0
50.1011 13.0
50.1405 21.0
50.1799 17.0
50.2192 25.0
50.2586 21.0
50.298 24.0
50.3374 27.0
50.3768 25.0
50.4162 16.0
50.4556 20.0
50.495 17.0
50.5344 28.0
50.5738 14.0
50.6132 23.0
50.6525 20.0
50.6919 11.0
50.7313 27.0
50.7707 26.0
50.8101 20.0
50.8495 24.0
50.8889 20.0
50.9283 25.0
50.9677 33.0
51.0071 21.0
51.0465 23.0
51.0858 23.0
51.1252 18.0
51.1646 29.0
51.204 20.0
51.2434 29.0
51.2828 28.0
51.3222 23.0
51.3616 14.0
51.401 26.0
51.4404 19.0
51.4798 17.0
51.5191 23.0
51.5585 17.0
51.5979 20.0
51.6373 25.0
51.6767 33.0
51.7161 18.0
51.7555 22.0
51.7949 28.0
51.8343 23.0
51.8737 15.0
51.9131 23.0
51.9524 28.0
51.9918 12.0
52.0312 28.0
52.0706 23.0
52.11 20.0
52.1494 15.0
52.1888 22.0
52.2282 24.0
52.2676 22.0
52.307 10.0
52.3464 21.0
52.3857 28.0
52.4251 26.0
52.4645 23.0
52.5039 38.0
52.5433 30.0
52.5827 49.0
52.6221 50.0
52.6615 84.0
52.7009 61.0
52.7403 80.0
52.7797 103.0
52.819 98.0
52.8584 104.0
52.8978 96.0
52.9372 105.0
52.9766 101.0
53.016 104.0
53.0554 118.0
53.0948 119.0
53.1342 133.0
53.1736 170.0
53.213 222.0
53.2523 193.0
53.2917 122.0
53.3311 123.0
53.3705 108.0
53.4099 82.0
53.4493 55.0
53.4887 31.0
53.5281 35.0
53.5675 26.0
53.6069 45.0
53.6462 23.0
53.6856 20.0
53.725 23.0
53.7644 12.0
53.8038 22.0
53.8432 22.0
53.8826 19.0
53.922 21.0
53.9614 24.0
54.0008 30.0
54.0402 16.0
54.0795 20.0
54.1189 25.0
54.1583 16.0
54.1977 20.0
54.2371 23.0
54.2765 12.0
54.3159 18.0
54.3553 20.0
54.3947 16.0
54.4341 21.0
54.4735 22.0
54.5128 26.0
54.5522 24.0
54.5916 21.0
54.631 26.0
54.6704 25.0
54.7098 14.0
54.7492 26.0
54.7886 13.0
54.828 25.0
54.8674 15.0
54.9068 19.0
54.9461 18.0
54.9855 27.0
55.0249 13.0
55.0643 10.0
55.1037 21.0
55.1431 27.0
55.1825 12.0
55.2219 14.0
55.2613 26.0
55.3007 23.0
55.3401 22.0
55.3794 15.0
55.4188 19.0
55.4582 24.0
55.4976 20.0
55.537 23.0
55.5764 18.0
55.6158 14.0
55.6552 23.0
55.6946 23.0
55.734 20.0
55.7734 24.0
55.8127 15.0
55.8521 16.0
55.8915 22.0
55.9309 17.0
55.9703 22.0
56.0097 23.0
56.0491 20.0
56.0885 25.0
56.1279 20.0
56.1673 29.0
56.2067 22.0
56.246 13.0
56.2854 23.0
56.3248 23.0
56.3642 17.0
56.4036 17.0
56.443 25.0
56.4824 16.0
56.5218 21.0
56.5612 16.0
56.6006 14.0
56.64 19.0
56.6793 22.0
56.7187 27.0
56.7581 20.0
56.7975 16.0
56.8369 21.0
56.8763 18.0
56.9157 19.0
56.9551 23.0
56.9945 25.0
57.0339 18.0
57.0733 15.0
57.1126 22.0
57.152 17.0
57.1914 15.0
57.2308 28.0
57.2702 29.0
57.3096 18.0
57.349 12.0
57.3884 16.0
57.4278 30.0
57.4672 21.0
57.5066 20.0
57.5459 23.0
57.5853 16.0
57.6247 17.0
57.6641 22.0
57.7035 19.0
57.7429 14.0
57.7823 12.0
57.8217 25.0
57.8611 19.0
57.9005 26.0
57.9399 23.0
57.9792 15.0
58.0186 10.0
58.058 31.0
58.0974 26.0
58.1368 15.0
58.1762 17.0
58.2156 16.0
58.255 16.0
58.2944 21.0
58.3338 23.0
58.3732 17.0
58.4125 17.0
58.4519 19.0
58.4913 17.0
58.5307 18.0
58.5701 21.0
58.6095 19.0
58.6489 18.0
58.6883 19.0
58.7277 12.0
58.7671 18.0
58.8065 17.0
58.8458 20.0
58.8852 12.0
58.9246 17.0
58.964 25.0
59.0034 21.0
59.0428 22.0
59.0822 19.0
59.1216 20.0
59.161 14.0
59.2004 18.0
59.2397 21.0
59.2791 15.0
59.3185 26.0
59.3579 22.0
59.3973 21.0
59.4367 26.0
59.4761 27.0
59.5155 37.0
59.5549 27.0
59.5943 39.0
59.6337 38.0
59.673 39.0
59.7124 40.0
59.7518 43.0
59.7912 29.0
59.8306 39.0
59.87 49.0
59.9094 50.0
59.9488 52.0
59.9882 44.0
60.0276 80.0
60.067 66.0
60.1063 54.0
60.1457 43.0
60.1851 30.0
60.2245 35.0
60.2639 40.0
60.3033 31.0
60.3427 17.0
60.3821 19.0
60.4215 14.0
60.4609 20.0
60.5003 26.0
60.5396 27.0
60.579 21.0
60.6184 22.0
60.6578 16.0
60.6972 20.0
60.7366 17.0
60.776 18.0
60.8154 17.0
60.8548 15.0
60.8942 15.0
60.9336 23.0
60.9729 20.0
61.0123 20.0
61.0517 22.0
61.0911 12.0
61.1305 9.0
61.1699 21.0
61.2093 17.0
61.2487 23.0
61.2881 19.0
61.3275 22.0
61.3669 16.0
61.4062 25.0
61.4456 16.0
61.485 15.0
61.5244 11.0
61.5638 25.0
61.6032 10.0
61.6426 15.0
61.682 17.0
61.7214 23.0
61.7608 16.0
61.8002 17.0
61.8395 22.0
61.8789 20.0
61.9183 14.0
61.9577 18.0
61.9971 17.0
62.0365 14.0
62.0759 21.0
62.1153 9.0
62.1547 14.0
62.1941 28.0
62.2335 17.0
62.2728 12.0
62.3122 16.0
62.3516 20.0
62.391 16.0
62.4304 18.0
62.4698 20.0
62.5092 12.0
62.5486 20.0
62.588 23.0
62.6274 17.0
62.6668 19.0
62.7061 18.0
62.7455 21.0
62.7849 15.0
62.8243 24.0
62.8637 18.0
62.9031 6.0
62.9425 23.0
62.9819 20.0
63.0213 19.0
63.0607 21.0
63.1001 16.0
63.1394 14.0
63.1788 18.0
63.2182 14.0
63.2576 12.0
63.297 20.0
63.3364 15.0
63.3758 13.0
63.4152 21.0
63.4546 11.0
63.494 13.0
63.5334 14.0
63.5727 14.0
63.6121 20.0
63.6515 20.0
63.6909 10.0
63.7303 17.0
63.7697 17.0
63.8091 15.0
63.8485 21.0
63.8879 18.0
63.9273 22.0
63.9667 17.0
64.006 20.0
64.0454 18.0
64.0848 13.0
64.1242 16.0
64.1636 14.0
64.203 17.0
64.2424 22.0
64.2818 25.0
64.3212 14.0
64.3606 21.0
64.4 14.0
64.4393 21.0
64.4787 18.0
64.5181 24.0
64.5575 13.0
64.5969 21.0
64.6363 15.0
64.6757 11.0
64.7151 19.0
64.7545 25.0
64.7939 12.0
64.8333 19.0
64.8726 16.0
64.912 17.0
64.9514 17.0
64.9908 10.0
65.0302 24.0
65.0696 21.0
65.109 20.0
65.1484 20.0
65.1878 15.0
65.2272 15.0
65.2665 18.0
65.3059 16.0
65.3453 25.0
65.3847 23.0
65.4241 12.0
65.4635 18.0
65.5029 21.0
65.5423 21.0
65.5817 22.0
65.6211 19.0
65.6605 23.0
65.6998 19.0
65.7392 26.0
65.7786 26.0
65.818 21.0
65.8574 32.0
65.8968 27.0
65.9362 36.0
65.9756 40.0
66.015 48.0
66.0544 65.0
66.0938 94.0
66.1331 107.0
66.1725 137.0
66.2119 110.0
66.2513 137.0
66.2907 144.0
66.3301 171.0
66.3695 190.0
66.4089 241.0
66.4483 210.0
66.4877 145.0
66.5271 116.0
66.5664 144.0
66.6058 113.0
66.6452 74.0
66.6846 56.0
66.724 40.0
66.7634 30.0
66.8028 20.0
66.8422 17.0
66.8816 22.0
66.921 22.0
66.9604 22.0
66.9997 22.0
67.0391 17.0
67.0785 23.0
67.1179 13.0
67.1573 16.0
67.1967 10.0
67.2361 19.0
67.2755 22.0
67.3149 19.0
67.3543 29.0
67.3937 19.0
67.433 13.0
67.4724 7.0
67.5118 14.0
67.5512 29.0
67.5906 19.0
67.63 16.0
67.6694 16.0
67.7088 15.0
67.7482 33.0
67.7876 15.0
67.827 12.0
67.8663 16.0
67.9057 21.0
67.9451 17.0
67.9845 20.0
68.0239 23.0
68.0633 18.0
68.1027 12.0
68.1421 15.0
68.1815 17.0
68.2209 11.0
68.2603 23.0
68.2996 17.0
68.339 15.0
68.3784 21.0
68.4178 17.0
68.4572 12.0
68.4966 14.0
68.536 14.0
68.5754 20.0
68.6148 14.0
68.6542 24.0
68.6936 10.0
68.7329 17.0
68.7723 13.0
68.8117 16.0
68.8511 20.0
68.8905 15.0
68.9299 24.0
68.9693 16.0
69.0087 11.0
69.0481 22.0
69.0875 18.0
69.1269 16.0
69.1662 20.0
69.2056 15.0
69.245 14.0
69.2844 13.0
69.3238 29.0
69.3632 15.0
69.4026 22.0
69.442 19.0
69.4814 11.0
69.5208 19.0
69.5602 14.0
69.5995 21.0
69.6389 21.0
69.6783 16.0
69.7177 19.0
69.7571 19.0
69.7965 17.0
69.8359 19.0
69.8753 13.0
69.9147 16.0
69.9541 10.0
69.9935 13.0