File: Year 3/AIT/SAMPLE3_XRD.csv
20.0065 67.0
20.0459 78.0
20.0852 77.0
20.1246 83.0
20.164 64.0
20.2034 75.0
20.2428 81.0
20.2822 83.0
20.3216 83.0
20.361 89.0
20.4004 77.0
20.4398 75.0
20.4792 86.0
20.5185 67.0
20.5579 69.0
20.5973 59.0
20.6367 71.0
20.6761 79.0
20.7155 73.0
20.7549 95.0
20.7943 62.0
20.8337 72.0
20.8731 79.0
20.9125 62.0
20.9518 68.0
20.9912 82.0
21.0306 63.0
21.07 75.0
21.1094 58.0
21.1488 76.0
21.1882 77.0
21.2276 66.0
21.267 77.0
21.3064 58.0
21.3458 65.0
21.3851 77.0
21.4245 56.0
21.4639 73.0
21.5033 72.0
21.5427 74.0
21.5821 63.0
21.6215 58.0
21.6609 82.0
21.7003 70.0
21.7397 70.0
21.7791 65.0
21.8184 77.0
21.8578 76.0
21.8972 60.0
21.9366 63.0
21.976 77.0
22.0154 52.0
22.0548 74.0
22.0942 73.0
22.1336 78.0
22.173 74.0
22.2124 58.0
22.2517 62.0
22.2911 70.0
22.3305 67.0
22.3699 71.0
22.4093 75.0
22.4487 50.0
22.4881 57.0
22.5275 42.0
22.5669 61.0
22.6063 71.0
22.6457 66.0
22.685 76.0
22.7244 58.0
22.7638 79.0
22.8032 75.0
22.8426 73.0
22.882 55.0
22.9214 56.0
22.9608 55.0
23.0002 67.0
23.0396 65.0
23.079 53.0
23.1183 63.0
23.1577 57.0
23.1971 56.0
23.2365 70.0
23.2759 61.0
23.3153 63.0
23.3547 64.0
23.3941 52.0
23.4335 68.0
23.4729 53.0
23.5123 66.0
23.5516 74.0
23.591 72.0
23.6304 76.0
23.6698 60.0
23.7092 74.0
23.7486 47.0
23.788 70.0
23.8274 55.0
23.8668 63.0
23.9062 37.0
23.9455 63.0
23.9849 55.0
24.0243 64.0
24.0637 69.0
24.1031 64.0
24.1425 58.0
24.1819 51.0
24.2213 72.0
24.2607 50.0
24.3001 49.0
24.3395 66.0
24.3788 60.0
24.4182 68.0
24.4576 65.0
24.497 72.0
24.5364 62.0
24.5758 57.0
24.6152 51.0
24.6546 56.0
24.694 63.0
24.7334 67.0
24.7728 56.0
24.8121 60.0
24.8515 58.0
24.8909 50.0
24.9303 61.0
24.9697 52.0
25.0091 56.0
25.0485 57.0
25.0879 57.0
25.1273 45.0
25.1667 53.0
25.2061 49.0
25.2454 60.0
25.2848 58.0
25.3242 72.0
25.3636 59.0
25.403 82.0
25.4424 54.0
25.4818 78.0
25.5212 67.0
25.5606 75.0
25.6 96.0
25.6394 113.0
25.6787 123.0
25.7181 153.0
25.7575 167.0
25.7969 186.0
25.8363 150.0
25.8757 201.0
25.9151 163.0
25.9545 154.0
25.9939 78.0
26.0333 53.0
26.0727 69.0
26.112 82.0
26.1514 69.0
26.1908 57.0
26.2302 74.0
26.2696 57.0
26.309 59.0
26.3484 49.0
26.3878 73.0
26.4272 63.0
26.4666 50.0
26.506 62.0
26.5453 54.0
26.5847 50.0
26.6241 54.0
26.6635 58.0
26.7029 59.0
26.7423 46.0
26.7817 55.0
26.8211 57.0
26.8605 54.0
26.8999 60.0
26.9393 51.0
26.9786 53.0
27.018 52.0
27.0574 64.0
27.0968 47.0
27.1362 56.0
27.1756 60.0
27.215 50.0
27.2544 64.0
27.2938 65.0
27.3332 54.0
27.3726 43.0
27.4119 53.0
27.4513 60.0
27.4907 57.0
27.5301 46.0
27.5695 56.0
27.6089 63.0
27.6483 45.0
27.6877 51.0
27.7271 45.0
27.7665 57.0
27.8059 51.0
27.8452 56.0
27.8846 50.0
27.924 57.0
27.9634 64.0
28.0028 48.0
28.0422 66.0
28.0816 62.0
28.121 55.0
28.1604 63.0
28.1998 54.0
28.2392 31.0
28.2785 47.0
28.3179 70.0
28.3573 53.0
28.3967 68.0
28.4361 54.0
28.4755 54.0
28.5149 71.0
28.5543 55.0
28.5937 65.0
28.6331 51.0
28.6725 63.0
28.7118 48.0
28.7512 51.0
28.7906 52.0
28.83 47.0
28.8694 62.0
28.9088 58.0
28.9482 51.0
28.9876 54.0
29.027 54.0
29.0664 50.0
29.1058 54.0
29.1451 47.0
29.1845 44.0
29.2239 51.0
29.2633 54.0
29.3027 51.0
29.3421 49.0
29.3815 54.0
29.4209 59.0
29.4603 47.0
29.4997 56.0
29.5391 47.0
29.5784 50.0
29.6178 45.0
29.6572 49.0
29.6966 41.0
29.736 52.0
29.7754 55.0
29.8148 59.0
29.8542 53.0
29.8936 58.0
29.933 48.0
29.9723 58.0
30.0117 57.0
30.0511 60.0
30.0905 52.0
30.1299 43.0
30.1693 53.0
30.2087 54.0
30.2481 48.0
30.2875 43.0
30.3269 64.0
30.3663 46.0
30.4056 54.0
30.445 53.0
30.4844 58.0
30.5238 53.0
30.5632 36.0
30.6026 47.0
30.642 40.0
30.6814 47.0
30.7208 53.0
30.7602 51.0
30.7996 49.0
30.8389 34.0
30.8783 47.0
30.9177 44.0
30.9571 38.0
30.9965 67.0
31.0359 51.0
31.0753 51.0
31.1147 55.0
31.1541 48.0
31.1935 53.0
31.2329 62.0
31.2722 34.0
31.3116 43.0
31.351 42.0
31.3904 51.0
31.4298 55.0
31.4692 54.0
31.5086 50.0
31.548 58.0
31.5874 44.0
31.6268 48.0
31.6662 56.0
31.7055 49.0
31.7449 49.0
31.7843 48.0
31.8237 49.0
31.8631 52.0
31.9025 55.0
31.9419 52.0
31.9813 41.0
32.0207 41.0
32.0601 60.0
32.0995 60.0
32.1388 50.0
32.1782 54.0
32.2176 47.0
32.257 45.0
32.2964 48.0
32.3358 38.0
32.3752 53.0
32.4146 44.0
32.454 50.0
32.4934 45.0
32.5328 38.0
32.5721 53.0
32.6115 48.0
32.6509 51.0
32.6903 68.0
32.7297 48.0
32.7691 70.0
32.8085 73.0
32.8479 104.0
32.8873 90.0
32.9267 77.0
32.9661 80.0
33.0054 60.0
33.0448 54.0
33.0842 51.0
33.1236 43.0
33.163 53.0
33.2024 53.0
33.2418 53.0
33.2812 59.0
33.3206 47.0
33.36 47.0
33.3994 61.0
33.4387 54.0
33.4781 51.0
33.5175 54.0
33.5569 49.0
33.5963 63.0
33.6357 42.0
33.6751 47.0
33.7145 47.0
33.7539 59.0
33.7933 48.0
33.8327 39.0
33.872 26.0
33.9114 49.0
33.9508 38.0
33.9902 55.0
34.0296 53.0
34.069 49.0
34.1084 51.0
34.1478 54.0
34.1872 41.0
34.2266 47.0
34.266 36.0
34.3053 40.0
34.3447 38.0
34.3841 32.0
34.4235 39.0
34.4629 56.0
34.5023 56.0
34.5417 52.0
34.5811 35.0
34.6205 36.0
34.6599 36.0
34.6993 45.0
34.7386 49.0
34.778 48.0
34.8174 53.0
34.8568 53.0
34.8962 54.0
34.9356 48.0
34.975 41.0
35.0144 40.0
35.0538 39.0
35.0932 48.0
35.1326 38.0
35.1719 46.0
35.2113 41.0
35.2507 42.0
35.2901 41.0
35.3295 54.0
35.3689 53.0
35.4083 39.0
35.4477 49.0
35.4871 31.0
35.5265 33.0
35.5659 40.0
35.6052 38.0
35.6446 39.0
35.684 43.0
35.7234 28.0
35.7628 40.0
35.8022 49.0
35.8416 48.0
35.881 53.0
35.9204 37.0
35.9598 39.0
35.9991 41.0
36.0385 55.0
36.0779 38.0
36.1173 52.0
36.1567 48.0
36.1961 54.0
36.2355 54.0
36.2749 36.0
36.3143 45.0
36.3537 67.0
36.3931 60.0
36.4324 77.0
36.4718 71.0
36.5112 89.0
36.5506 96.0
36.59 137.0
36.6294 177.0
36.6688 247.0
36.7082 433.0
36.7476 743.0
36.787 928.0
36.8264 799.0
36.8657 872.0
36.9051 677.0
36.9445 527.0
36.9839 366.0
37.0233 271.0
37.0627 139.0
37.1021 101.0
37.1415 71.0
37.1809 51.0
37.2203 61.0
37.2597 66.0
37.299 61.0
37.3384 47.0
37.3778 49.0
37.4172 38.0
37.4566 41.0
37.496 59.0
37.5354 54.0
37.5748 51.0
37.6142 47.0
37.6536 43.0
37.693 32.0
37.7323 41.0
37.7717 33.0
37.8111 42.0
37.8505 47.0
37.8899 53.0
37.9293 43.0
37.9687 50.0
38.0081 49.0
38.0475 40.0
38.0869 45.0
38.1263 49.0
38.1656 49.0
38.205 41.0
38.2444 47.0
38.2838 41.0
38.3232 44.0
38.3626 44.0
38.402 42.0
38.4414 42.0
38.4808 63.0
38.5202 24.0
38.5596 53.0
38.5989 49.0
38.6383 44.0
38.6777 42.0
38.7171 32.0
38.7565 49.0
38.7959 32.0
38.8353 45.0
38.8747 52.0
38.9141 29.0
38.9535 48.0
38.9929 42.0
39.0322 49.0
39.0716 36.0
39.111 43.0
39.1504 27.0
39.1898 42.0
39.2292 40.0
39.2686 36.0
39.308 44.0
39.3474 40.0
39.3868 44.0
39.4262 46.0
39.4655 37.0
39.5049 43.0
39.5443 32.0
39.5837 35.0
39.6231 29.0
39.6625 27.0
39.7019 33.0
39.7413 37.0
39.7807 50.0
39.8201 53.0
39.8595 53.0
39.8988 49.0
39.9382 50.0
39.9776 49.0
40.017 30.0
40.0564 49.0
40.0958 52.0
40.1352 48.0
40.1746 41.0
40.214 40.0
40.2534 41.0
40.2928 34.0
40.3321 35.0
40.3715 37.0
40.4109 46.0
40.4503 39.0
40.4897 33.0
40.5291 46.0
40.5685 39.0
40.6079 38.0
40.6473 49.0
40.6867 50.0
40.7261 33.0
40.7654 31.0
40.8048 40.0
40.8442 36.0
40.8836 38.0
40.923 38.0
40.9624 36.0
41.0018 45.0
41.0412 35.0
41.0806 53.0
41.12 40.0
41.1594 51.0
41.1987 44.0
41.2381 57.0
41.2775 44.0
41.3169 47.0
41.3563 44.0
41.3957 37.0
41.4351 31.0
41.4745 46.0
41.5139 45.0
41.5533 35.0
41.5926 41.0
41.632 34.0
41.6714 41.0
41.7108 45.0
41.7502 35.0
41.7896 38.0
41.829 45.0
41.8684 48.0
41.9078 33.0
41.9472 29.0
41.9866 37.0
42.0259 28.0
42.0653 37.0
42.1047 47.0
42.1441 47.0
42.1835 45.0
42.2229 37.0
42.2623 28.0
42.3017 31.0
42.3411 29.0
42.3805 40.0
42.4199 45.0
42.4592 47.0
42.4986 34.0
42.538 36.0
42.5774 44.0
42.6168 43.0
42.6562 35.0
42.6956 37.0
42.735 24.0
42.7744 36.0
42.8138 43.0
42.8532 45.0
42.8925 47.0
42.9319 38.0
42.9713 35.0
43.0107 41.0
43.0501 29.0
43.0895 44.0
43.1289 33.0
43.1683 24.0
43.2077 31.0
43.2471 42.0
43.2865 31.0
43.3258 38.0
43.3652 31.0
43.4046 37.0
43.444 41.0
43.4834 43.0
43.5228 48.0
43.5622 32.0
43.6016 40.0
43.641 37.0
43.6804 35.0
43.7198 38.0
43.7591 26.0
43.7985 40.0
43.8379 28.0
43.8773 38.0
43.9167 38.0
43.9561 22.0
43.9955 39.0
44.0349 37.0
44.0743 35.0
44.1137 36.0
44.1531 35.0
44.1924 31.0
44.2318 33.0
44.2712 31.0
44.3106 43.0
44.35 39.0
44.3894 26.0
44.4288 24.0
44.4682 35.0
44.5076 30.0
44.547 35.0
44.5864 39.0
44.6257 47.0
44.6651 42.0
44.7045 28.0
44.7439 51.0
44.7833 38.0
44.8227 38.0
44.8621 30.0
44.9015 33.0
44.9409 29.0
44.9803 23.0
45.0197 41.0
45.059 42.0
45.0984 46.0
45.1378 52.0
45.1772 47.0
45.2166 43.0
45.256 38.0
45.2954 43.0
45.3348 64.0
45.3742 84.0
45.4136 123.0
45.453 190.0
45.4923 336.0
45.5317 354.0
45.5711 206.0
45.6105 218.0
45.6499 129.0
45.6893 70.0
45.7287 64.0
45.7681 54.0
45.8075 37.0
45.8469 36.0
45.8863 38.0
45.9256 53.0
45.965 38.0
46.0044 39.0
46.0438 44.0
46.0832 30.0
46.1226 47.0
46.162 31.0
46.2014 36.0
46.2408 34.0
46.2802 36.0
46.3196 33.0
46.3589 37.0
46.3983 36.0
46.4377 34.0
46.4771 36.0
46.5165 39.0
46.5559 38.0
46.5953 32.0
46.6347 42.0
46.6741 33.0
46.7135 32.0
46.7529 26.0
46.7922 26.0
46.8316 20.0
46.871 42.0
46.9104 21.0
46.9498 29.0
46.9892 34.0
47.0286 33.0
47.068 26.0
47.1074 25.0
47.1468 41.0
47.1862 37.0
47.2255 37.0
47.2649 35.0
47.3043 28.0
47.3437 40.0
47.3831 38.0
47.4225 58.0
47.4619 42.0
47.5013 37.0
47.5407 29.0
47.5801 28.0
47.6194 45.0
47.6588 31.0
47.6982 42.0
47.7376 43.0
47.777 34.0
47.8164 45.0
47.8558 46.0
47.8952 26.0
47.9346 41.0
47.974 29.0
48.0134 33.0
48.0527 41.0
48.0921 30.0
48.1315 31.0
48.1709 23.0
48.2103 36.0
48.2497 42.0
48.2891 32.0
48.3285 28.0
48.3679 34.0
48.4073 42.0
48.4467 61.0
48.486 23.0
48.5254 26.0
48.5648 26.0
48.6042 29.0
48.6436 32.0
48.683 37.0
48.7224 41.0
48.7618 29.0
48.8012 33.0
48.8406 36.0
48.88 32.0
48.9193 38.0
48.9587 37.0
48.9981 30.0
49.0375 36.0
49.0769 32.0
49.1163 35.0
49.1557 25.0
49.1951 34.0
49.2345 25.0
49.2739 48.0
49.3133 26.0
49.3526 32.0
49.392 38.0
49.4314 27.0
49.4708 24.0
49.5102 36.0
49.5496 33.0
49.589 38.0
49.6284 25.0
49.6678 34.0
49.7072 35.0
49.7466 29.0
49.7859 29.0
49.8253 31.0
49.8647 26.0
49.9041 29.0
49.9435 26.0
49.9829 40.0
50.0223 22.0
50.0617 28.0
50.1011 33.0
50.1405 27.0
50.1799 28.0
50.2192 33.0
50.2586 34.0
50.298 33.0
50.3374 36.0
50.3768 31.0
50.4162 34.0
50.4556 29.0
50.495 32.0
50.5344 21.0
50.5738 23.0
50.6132 40.0
50.6525 31.0
50.6919 34.0
50.7313 29.0
50.7707 34.0
50.8101 30.0
50.8495 36.0
50.8889 31.0
50.9283 31.0
50.9677 38.0
51.0071 27.0
51.0465 20.0
51.0858 40.0
51.1252 31.0
51.1646 31.0
51.204 34.0
51.2434 24.0
51.2828 39.0
51.3222 22.0
51.3616 30.0
51.401 29.0
51.4404 27.0
51.4798 39.0
51.5191 35.0
51.5585 41.0
51.5979 24.0
51.6373 33.0
51.6767 25.0
51.7161 22.0
51.7555 26.0
51.7949 41.0
51.8343 16.0
51.8737 26.0
51.9131 39.0
51.9524 25.0
51.9918 39.0
52.0312 24.0
52.0706 37.0
52.11 26.0
52.1494 31.0
52.1888 30.0
52.2282 26.0
52.2676 41.0
52.307 29.0
52.3464 44.0
52.3857 42.0
52.4251 43.0
52.4645 23.0
52.5039 46.0
52.5433 45.0
52.5827 59.0
52.6221 67.0
52.6615 74.0
52.7009 91.0
52.7403 88.0
52.7797 108.0
52.819 91.0
52.8584 102.0
52.8978 119.0
52.9372 99.0
52.9766 125.0
53.016 111.0
53.0554 129.0
53.0948 148.0
53.1342 136.0
53.1736 146.0
53.213 194.0
53.2523 167.0
53.2917 164.0
53.3311 140.0
53.3705 117.0
53.4099 80.0
53.4493 62.0
53.4887 52.0
53.5281 60.0
53.5675 41.0
53.6069 31.0
53.6462 35.0
53.6856 44.0
53.725 32.0
53.7644 34.0
53.8038 28.0
53.8432 27.0
53.8826 33.0
53.922 36.0
53.9614 30.0
54.0008 32.0
54.0402 25.0
54.0795 32.0
54.1189 38.0
54.1583 29.0
54.1977 27.0
54.2371 38.0
54.2765 30.0
54.3159 22.0
54.3553 24.0
54.3947 36.0
54.4341 26.0
54.4735 35.0
54.5128 43.0
54.5522 33.0
54.5916 37.0
54.631 39.0
54.6704 36.0
54.7098 31.0
54.7492 30.0
54.7886 33.0
54.828 34.0
54.8674 36.0
54.9068 34.0
54.9461 28.0
54.9855 31.0
55.0249 20.0
55.0643 20.0
55.1037 37.0
55.1431 24.0
55.1825 32.0
55.2219 23.0
55.2613 31.0
55.3007 23.0
55.3401 32.0
55.3794 25.0
55.4188 20.0
55.4582 32.0
55.4976 31.0
55.537 27.0
55.5764 30.0
55.6158 39.0
55.6552 29.0
55.6946 32.0
55.734 30.0
55.7734 18.0
55.8127 28.0
55.8521 39.0
55.8915 41.0
55.9309 28.0
55.9703 39.0
56.0097 33.0
56.0491 21.0
56.0885 22.0
56.1279 30.0
56.1673 40.0
56.2067 37.0
56.246 22.0
56.2854 24.0
56.3248 30.0
56.3642 26.0
56.4036 31.0
56.443 30.0
56.4824 27.0
56.5218 26.0
56.5612 30.0
56.6006 25.0
56.64 39.0
56.6793 28.0
56.7187 26.0
56.7581 23.0
56.7975 21.0
56.8369 33.0
56.8763 29.0
56.9157 26.0
56.9551 39.0
56.9945 24.0
57.0339 28.0
57.0733 32.0
57.1126 23.0
57.152 31.0
57.1914 18.0
57.2308 32.0
57.2702 31.0
57.3096 38.0
57.349 31.0
57.3884 20.0
57.4278 18.0
57.4672 34.0
57.5066 24.0
57.5459 30.0
57.5853 40.0
57.6247 24.0
57.6641 25.0
57.7035 35.0
57.7429 31.0
57.7823 23.0
57.8217 29.0
57.8611 33.0
57.9005 44.0
57.9399 24.0
57.9792 37.0
58.0186 35.0
58.058 35.0
58.0974 39.0
58.1368 32.0
58.1762 34.0
58.2156 36.0
58.255 41.0
58.2944 23.0
58.3338 35.0
58.3732 37.0
58.4125 25.0
58.4519 25.0
58.4913 32.0
58.5307 36.0
58.5701 23.0
58.6095 36.0
58.6489 22.0
58.6883 30.0
58.7277 33.0
58.7671 22.0
58.8065 24.0
58.8458 38.0
58.8852 32.0
58.9246 34.0
58.964 28.0
59.0034 35.0
59.0428 43.0
59.0822 33.0
59.1216 35.0
59.161 27.0
59.2004 33.0
59.2397 30.0
59.2791 37.0
59.3185 35.0
59.3579 28.0
59.3973 36.0
59.4367 47.0
59.4761 27.0
59.5155 50.0
59.5549 52.0
59.5943 48.0
59.6337 45.0
59.673 48.0
59.7124 65.0
59.7518 62.0
59.7912 39.0
59.8306 43.0
59.87 53.0
59.9094 61.0
59.9488 67.0
59.9882 78.0
60.0276 63.0
60.067 59.0
60.1063 75.0
60.1457 61.0
60.1851 52.0
60.2245 43.0
60.2639 48.0
60.3033 42.0
60.3427 27.0
60.3821 32.0
60.4215 44.0
60.4609 29.0
60.5003 40.0
60.5396 32.0
60.579 34.0
60.6184 22.0
60.6578 23.0
60.6972 30.0
60.7366 33.0
60.776 26.0
60.8154 20.0
60.8548 41.0
60.8942 19.0
60.9336 30.0
60.9729 29.0
61.0123 33.0
61.0517 32.0
61.0911 28.0
61.1305 27.0
61.1699 32.0
61.2093 28.0
61.2487 26.0
61.2881 33.0
61.3275 25.0
61.3669 24.0
61.4062 18.0
61.4456 19.0
61.485 27.0
61.5244 28.0
61.5638 22.0
61.6032 20.0
61.6426 22.0
61.682 20.0
61.7214 33.0
61.7608 20.0
61.8002 26.0
61.8395 27.0
61.8789 31.0
61.9183 25.0
61.9577 29.0
61.9971 37.0
62.0365 36.0
62.0759 27.0
62.1153 33.0
62.1547 21.0
62.1941 20.0
62.2335 30.0
62.2728 22.0
62.3122 20.0
62.3516 38.0
62.391 28.0
62.4304 22.0
62.4698 22.0
62.5092 20.0
62.5486 32.0
62.588 37.0
62.6274 29.0
62.6668 22.0
62.7061 23.0
62.7455 28.0
62.7849 19.0
62.8243 35.0
62.8637 29.0
62.9031 34.0
62.9425 27.0
62.9819 31.0
63.0213 24.0
63.0607 34.0
63.1001 27.0
63.1394 14.0
63.1788 18.0
63.2182 28.0
63.2576 34.0
63.297 34.0
63.3364 29.0
63.3758 26.0
63.4152 20.0
63.4546 39.0
63.494 32.0
63.5334 26.0
63.5727 23.0
63.6121 34.0
63.6515 24.0
63.6909 35.0
63.7303 32.0
63.7697 24.0
63.8091 29.0
63.8485 32.0
63.8879 30.0
63.9273 32.0
63.9667 27.0
64.006 25.0
64.0454 27.0
64.0848 18.0
64.1242 32.0
64.1636 22.0
64.203 35.0
64.2424 30.0
64.2818 25.0
64.3212 22.0
64.3606 27.0
64.4 31.0
64.4393 30.0
64.4787 28.0
64.5181 28.0
64.5575 22.0
64.5969 22.0
64.6363 25.0
64.6757 31.0
64.7151 37.0
64.7545 24.0
64.7939 34.0
64.8333 18.0
64.8726 19.0
64.912 29.0
64.9514 23.0
64.9908 34.0
65.0302 27.0
65.0696 22.0
65.109 26.0
65.1484 22.0
65.1878 30.0
65.2272 32.0
65.2665 20.0
65.3059 22.0
65.3453 27.0
65.3847 28.0
65.4241 28.0
65.4635 34.0
65.5029 30.0
65.5423 40.0
65.5817 33.0
65.6211 31.0
65.6605 22.0
65.6998 32.0
65.7392 35.0
65.7786 47.0
65.818 32.0
65.8574 28.0
65.8968 50.0
65.9362 49.0
65.9756 53.0
66.015 65.0
66.0544 90.0
66.0938 117.0
66.1331 97.0
66.1725 139.0
66.2119 117.0
66.2513 110.0
66.2907 151.0
66.3301 185.0
66.3695 185.0
66.4089 232.0
66.4483 220.0
66.4877 186.0
66.5271 145.0
66.5664 134.0
66.6058 128.0
66.6452 104.0
66.6846 54.0
66.724 45.0
66.7634 40.0
66.8028 37.0
66.8422 40.0
66.8816 24.0
66.921 38.0
66.9604 31.0
66.9997 33.0
67.0391 28.0
67.0785 31.0
67.1179 41.0
67.1573 30.0
67.1967 33.0
67.2361 28.0
67.2755 24.0
67.3149 41.0
67.3543 32.0
67.3937 27.0
67.433 30.0
67.4724 32.0
67.5118 34.0
67.5512 17.0
67.5906 33.0
67.63 36.0
67.6694 23.0
67.7088 29.0
67.7482 34.0
67.7876 27.0
67.827 34.0
67.8663 37.0
67.9057 19.0
67.9451 28.0
67.9845 25.0
68.0239 22.0
68.0633 38.0
68.1027 37.0
68.1421 28.0
68.1815 28.0
68.2209 20.0
68.2603 24.0
68.2996 30.0
68.339 38.0
68.3784 20.0
68.4178 32.0
68.4572 24.0
68.4966 33.0
68.536 36.0
68.5754 22.0
68.6148 31.0
68.6542 28.0
68.6936 27.0
68.7329 17.0
68.7723 21.0
68.8117 26.0
68.8511 31.0
68.8905 36.0
68.9299 29.0
68.9693 32.0
69.0087 23.0
69.0481 37.0
69.0875 28.0
69.1269 23.0
69.1662 36.0
69.2056 26.0
69.245 17.0
69.2844 23.0
69.3238 20.0
69.3632 30.0
69.4026 34.0
69.442 26.0
69.4814 16.0
69.5208 27.0
69.5602 31.0
69.5995 30.0
69.6389 33.0
69.6783 28.0
69.7177 16.0
69.7571 26.0
69.7965 19.0
69.8359 25.0
69.8753 25.0
69.9147 19.0
69.9541 38.0
69.9935 20.0