File: PhD Work/XRD Plotter_240524/ALMW5_raw_240524.csv
10.0116,7471
10.0802,7342
10.1489,7280
10.2175,7622
10.2862,7615
10.35485,7521
10.4235,7431
10.4922,7408
10.5608,7403
10.6295,7359
10.6981,7475
10.7668,7437
10.8354,7323
10.9041,7249
10.9728,7294
11.0414,7298
11.1101,7403
11.1787,7341
11.2474,7288
11.316,7382
11.3847,7396
11.4534,7369
11.522,7127
11.5907,7256
11.6593,7002
11.728,7288
11.7966,7502
11.8653,7363
11.934,7322
12.0026,7191
12.0713,7281
12.1399,7185
12.2086,7113
12.2772,7144
12.3459,7282
12.4146,7249
12.4832,7054
12.5519,7100
12.6205,7216
12.6892,7212
12.7578,7006
12.8265,7114
12.8952,7066
12.9638,6935
13.0325,6930
13.1011,7213
13.1698,6859
13.2384,7013
13.3071,7010
13.3758,6834
13.4444,6993
13.5131,6967
13.5817,6978
13.6504,7058
13.719,7026
13.7877,7002
13.8564,6910
13.925,6962
13.9937,6947
14.0623,6953
14.131,6842
14.1996,6930
14.2683,6828
14.337,6855
14.4056,6984
14.4743,6845
14.5429,6901
14.6116,6922
14.6802,6895
14.7489,6959
14.8176,6857
14.8862,6995
14.9549,6830
15.0235,6919
15.0922,6955
15.1608,6852
15.2295,6962
15.2982,6933
15.3668,6797
15.4355,6894
15.5041,6840
15.5728,6969
15.6414,6820
15.7101,6740
15.7788,6916
15.8474,7275
15.9161,7000
15.9847,6917
16.0534,7097
16.122,6871
16.1907,7017
16.2593,7042
16.328,7093
16.3967,7169
16.4653,7099
16.534,6998
16.6026,7085
16.6713,7110
16.7399,7108
16.8086,7067
16.8773,7050
16.9459,7237
17.0146,7204
17.0832,7186
17.1519,7256
17.2205,7270
17.2892,7359
17.3579,7252
17.4265,7349
17.4952,7403
17.5638,7438
17.6325,7509
17.7011,7269
17.7698,7356
17.8385,7512
17.9071,7535
17.9758,7476
18.0444,7653
18.1131,7649
18.1817,7579
18.2504,7679
18.3191,7924
18.3877,7821
18.4564,7815
18.525,7965
18.5937,7942
18.6623,7861
18.731,7994
18.7997,7740
18.8683,7752
18.937,7993
19.0056,7895
19.0743,8058
19.1429,8012
19.2116,8222
19.2803,8161
19.3489,8175
19.4176,8300
19.4862,8274
19.5549,8438
19.6235,8205
19.6922,8227
19.7609,8346
19.8295,8446
19.8982,8317
19.9668,8521
20.0355,8494
20.1041,8504
20.1728,8540
20.2415,8638
20.3101,8608
20.3788,8579
20.4474,8664
20.5161,8812
20.5847,8603
20.6534,8809
20.7221,8719
20.7907,8751
20.8594,8875
20.928,8973
20.9967,8828
21.0653,8983
21.134,9008
21.2027,8911
21.2713,8921
21.34,8654
21.4086,8801
21.4773,8918
21.5459,8911
21.6146,8992
21.6833,9128
21.7519,8908
21.8206,9149
21.8892,9009
21.9579,9217
22.0265,9087
22.0952,9076
22.1638,9110
22.2325,9216
22.3012,9042
22.3698,9160
22.4385,9226
22.5071,9148
22.5758,9521
22.6444,9032
22.7131,9176
22.7818,9297
22.8504,9336
22.9191,9273
22.9877,9012
23.0564,9253
23.125,9360
23.1937,9153
23.2624,9114
23.331,9252
23.3997,9275
23.4683,9388
23.537,9322
23.6056,9175
23.6743,9417
23.743,9157
23.8116,9164
23.8803,9418
23.9489,9418
24.0176,9325
24.0862,9287
24.1549,9296
24.2236,9684
24.2922,9207
24.3609,9318
24.4295,9473
24.4982,9359
24.5668,9362
24.6355,9539
24.7042,9499
24.7728,9343
24.8415,9112
24.9101,9327
24.9788,9301
25.0474,9330
25.1161,9460
25.1848,9599
25.2534,9397
25.3221,9313
25.3907,9372
25.4594,9328
25.528,9318
25.5967,9514
25.6654,9348
25.734,9224
25.8027,9132
25.8713,9250
25.94,9079
26.0086,9371
26.0773,9228
26.146,9070
26.2146,9167
26.2833,9086
26.3519,8956
26.4206,9141
26.4892,8984
26.5579,8951
26.6266,9197
26.6952,9074
26.7639,8888
26.8325,8902
26.9012,9054
26.9698,8903
27.0385,8681
27.1072,8961
27.1758,8779
27.2445,8685
27.3131,8961
27.3818,8692
27.4504,8723
27.5191,8668
27.5877,8685
27.6564,8610
27.7251,8751
27.7937,8639
27.8624,8459
27.931,8342
27.9997,8221
28.0683,8530
28.137,8399
28.2057,8387
28.2743,8416
28.343,8221
28.4116,8345
28.4803,8224
28.5489,8270
28.6176,8207
28.6863,8172
28.7549,8092
28.8236,8006
28.8922,7937
28.9609,7942
29.0295,7966
29.0982,7851
29.1669,7818
29.2355,7917
29.3042,7806
29.3728,7677
29.4415,7695
29.5101,7742
29.5788,7701
29.6475,7760
29.7161,7544
29.7848,7561
29.8534,7600
29.9221,7499
29.9907,7601
30.0594,7486
30.1281,7399
30.1967,7376
30.2654,7389
30.334,7459
30.4027,7254
30.4713,7286
30.54,7222
30.6087,7133
30.6773,7208
30.746,7192
30.8146,7066
30.8833,7101
30.9519,7004
31.0206,7098
31.0893,6987
31.1579,6998
31.2266,6980
31.2952,6853
31.3639,6743
31.4325,6887
31.5012,6696
31.5699,6618
31.6385,6815
31.7072,6811
31.7758,6716
31.8445,6663
31.9131,6656
31.9818,6665
32.0505,6549
32.1191,6477
32.1878,6465
32.2564,6404
32.3251,6423
32.3937,6616
32.4624,6461
32.5311,6577
32.5997,6425
32.6684,6359
32.737,6391
32.8057,6326
32.8743,6155
32.943,5949
33.0117,6057
33.0803,6122
33.149,6178
33.2176,6083
33.2863,5960
33.3549,6204
33.4236,5971
33.4922,6071
33.5609,5982
33.6296,5776
33.6982,6010
33.7669,5945
33.8355,5875
33.9042,5781
33.9728,5642
34.0415,5716
34.1102,5663
34.1788,5764
34.2475,5556
34.3161,5751
34.3848,5728
34.4534,5711
34.5221,5430
34.5908,5653
34.6594,5580
34.7281,5524
34.7967,5504
34.8654,5495
34.934,5597
35.0027,5563
35.0714,5303
35.14,5315
35.2087,5357
35.2773,5364
35.346,5436
35.4146,5412
35.4833,5399
35.552,5311
35.6206,5177
35.6893,5346
35.7579,5319
35.8266,5186
35.8952,5213
35.9639,5153
36.0326,5147
36.1012,5136
36.1699,5089
36.2385,5188
36.3072,5051
36.3758,5290
36.4445,5112
36.5132,5137
36.5818,5121
36.6505,5192
36.7191,5274
36.7878,5055
36.8564,5134
36.9251,5226
36.9938,4841
37.0624,5013
37.1311,4954
37.1997,4917
37.2684,4845
37.337,4689
37.4057,4933
37.4744,4812
37.543,4687
37.6117,4697
37.6803,4919
37.749,4623
37.8176,4667
37.8863,4713
37.955,4656
38.0236,4687
38.0923,4657
38.1609,4623
38.2296,4616
38.2982,4502
38.3669,4478
38.4356,4505
38.5042,4396
38.5729,4486
38.6415,4453
38.7102,4517
38.7788,4462
38.8475,4454
38.9162,4456
38.9848,4412
39.0535,4449
39.1221,4414
39.1908,4399
39.2594,4413
39.3281,4333
39.3967,4296
39.4654,4216
39.5341,4382
39.6027,4449
39.6714,4319
39.74,4274
39.8087,4186
39.8773,4257
39.946,4272
40.0147,4300
40.0833,4259
40.152,4154
40.2206,4228
40.2893,4142
40.3579,4214
40.4266,4116
40.4953,4279
40.5639,4204
40.6326,4195
40.7012,4260
40.7699,4131
40.8385,4233
40.9072,4215
40.9759,4193
41.0445,4170
41.1132,4093
41.1818,4218
41.2505,4086
41.3191,4049
41.3878,4229
41.4565,4178
41.5251,4232
41.5938,4298
41.6624,4106
41.7311,4205
41.7997,4246
41.8684,4069
41.9371,4167
42.0057,4109
42.0744,4058
42.143,4118
42.2117,4152
42.2803,4207
42.349,4154
42.4177,4209
42.4863,4073
42.555,4112
42.6236,4274
42.6923,4153
42.7609,4147
42.8296,4141
42.8983,4258
42.9669,4159
43.0356,4147
43.1042,4121
43.1729,4091
43.2415,4138
43.3102,4210
43.3789,4146
43.4475,4116
43.5162,4141
43.5848,4066
43.6535,4186
43.7221,4251
43.7908,4229
43.8595,4092
43.9281,4135
43.9968,4105
44.0654,4109
44.1341,4095
44.2027,4066
44.2714,4238
44.3401,4137
44.4087,4077
44.4774,4098
44.546,4071
44.6147,4062
44.6833,4115
44.752,3983
44.8206,4143
44.8893,4247
44.958,4074
45.0266,4061
45.0953,4021
45.1639,4034
45.2326,4152
45.3012,4032
45.3699,4049
45.4386,4129
45.5072,4191
45.5759,4097
45.6445,4178
45.7132,3929
45.7818,3926
45.8505,4009
45.9192,4024
45.9878,3950
46.0565,4081
46.1251,4068
46.1938,4003
46.2624,3926
46.3311,3864
46.3998,4018
46.4684,3970
46.5371,3977
46.6057,3962
46.6744,4008
46.743,3855
46.8117,3876
46.8804,3935
46.949,3927
47.0177,3819
47.0863,3929
47.155,3826
47.2236,3858
47.2923,3899
47.361,3789
47.4296,3814
47.4983,3910
47.5669,3849
47.6356,3892
47.7042,3781
47.7729,3890
47.8416,3972
47.9102,3770
47.9789,3893
48.0475,3678
48.1162,3891
48.1848,3806
48.2535,3796
48.3222,3780
48.3908,3673
48.4595,3777
48.5281,3710
48.5968,3647
48.6654,3625
48.7341,3762
48.8028,3724
48.8714,3692
48.9401,3664
49.0087,3747
49.0774,3823
49.146,3575
49.2147,3587
49.2834,3700
49.352,3578
49.4207,3611
49.4893,3609
49.558,3770
49.6266,3786
49.6953,3650
49.764,3722
49.8326,3768
49.9013,3804
49.9699,3792
50.0386,3752
50.1072,3641
50.1759,3742
50.2446,3704
50.3132,3812
50.3819,3636
50.4505,3485
50.5192,3487
50.5878,3354
50.6565,3382
50.7251,3466
50.7938,3474
50.8625,3499
50.9311,3346
50.9998,3539
51.0684,3444
51.1371,3530
51.2057,3442
51.2744,3321
51.3431,3474
51.4117,3416
51.4804,3471
51.549,3300
51.6177,3388
51.6863,3176
51.755,3355
51.8237,3317
51.8923,3385
51.961,3356
52.0296,3356
52.0983,3218
52.1669,3284
52.2356,3318
52.3043,3289
52.3729,3272
52.4416,3273
52.5102,3244
52.5789,3163
52.6475,3239
52.7162,3331
52.7849,3057
52.8535,3159
52.9222,3159
52.9908,3154
53.0595,3270
53.1281,3211
53.1968,3351
53.2655,3311
53.3341,3131
53.4028,3148
53.4714,3233
53.5401,3097
53.6087,3148
53.6774,3156
53.7461,3137
53.8147,3039
53.8834,3129
53.952,3220
54.0207,3108
54.0893,3023
54.158,3102
54.2267,3192
54.2953,3028
54.364,3054
54.4326,3092
54.5013,3093
54.5699,3048
54.6386,3104
54.7073,3021
54.7759,3073
54.8446,3058
54.9132,3015
54.9819,3046
55.0505,2900
55.1192,3046
55.1879,3002
55.2565,3101
55.3252,3036
55.3938,3029
55.4625,3006
55.5311,3000
55.5998,3137
55.6685,3064
55.7371,3027
55.8058,3005
55.8744,3010
55.9431,2951
56.0117,2906
56.0804,2975
56.1491,2992
56.2177,3024
56.2864,2861
56.355,2972
56.4237,2918
56.4923,2868
56.561,3079
56.6296,2887
56.6983,2866
56.767,3000
56.8356,3083
56.9043,2969
56.9729,2953
57.0416,2964
57.1102,2855
57.1789,2902
57.2476,2942
57.3162,2866
57.3849,2814
57.4535,2908
57.5222,2959
57.5908,2915
57.6595,2883
57.7282,2886
57.7968,2852
57.8655,2897
57.9341,2878
58.0028,2916
58.0714,2902
58.1401,2894
58.2088,2701
58.2774,2932
58.3461,2813
58.4147,2750
58.4834,2874
58.552,2952
58.6207,2737
58.6894,2745
58.758,2764
58.8267,2839
58.8953,2761
58.964,2809
59.0326,2824
59.1013,2786
59.17,2896
59.2386,2805
59.3073,2901
59.3759,2728
59.4446,2793
59.5132,2701
59.5819,2893
59.6506,2741
59.7192,2868
59.7879,2865
59.8565,2943
59.9252,2774
59.9938,2837
60.0625,2839
60.1312,2810
60.1998,2757
60.2685,2754
60.3371,2793
60.4058,2758
60.4744,2841
60.5431,2723
60.6118,2787
60.6804,2757
60.7491,2738
60.8177,2809
60.8864,2720
60.955,2789
61.0237,2670
61.0924,2792
61.161,2794
61.2297,2708
61.2983,2818
61.367,2862
61.4356,2744
61.5043,2776
61.573,2695
61.6416,2811
61.7103,2760
61.7789,2761
61.8476,2790
61.9162,2694
61.9849,2720
62.0535,2751
62.1222,2741
62.1909,2724
62.2595,2681
62.3282,2608
62.3968,2706
62.4655,2707
62.5341,2841
62.6028,2704
62.6715,2784
62.7401,2667
62.8088,2706
62.8774,2651
62.9461,2690
63.0147,2632
63.0834,2707
63.1521,2733
63.2207,2739
63.2894,2703
63.358,2661
63.4267,2598
63.4953,2657
63.564,2741
63.6327,2573
63.7013,2756
63.77,2653
63.8386,2802
63.9073,2764
63.9759,2712
64.0446,2719
64.1133,2681
64.1819,2604
64.2506,2735
64.3192,2715
64.3879,2660
64.4565,2721
64.5252,2683
64.5939,2674
64.6625,2779
64.7312,2574
64.7998,2679
64.8685,2651
64.9371,2734
65.0058,2649
65.0745,2630
65.1431,2717
65.2118,2737
65.2804,2725
65.3491,2592
65.4177,2691
65.4864,2743
65.5551,2772
65.6237,2671
65.6924,2629
65.761,2649
65.8297,2691
65.8983,2737
65.967,2629
66.0357,2722
66.1043,2670
66.173,2740
66.2416,2661
66.3103,2702
66.3789,2597
66.4476,2694
66.5163,2704
66.5849,2698
66.6536,2731
66.7222,2610
66.7909,2679
66.8595,2547
66.9282,2509
66.9969,2636
67.0655,2604
67.1342,2641
67.2028,2701
67.2715,2671
67.3401,2674
67.4088,2702
67.4775,2635
67.5461,2608
67.6148,2547
67.6834,2651
67.7521,2585
67.8207,2618
67.8894,2732
67.958,2620
68.0267,2671
68.0954,2587
68.164,2601
68.2327,2606
68.3013,2613
68.37,2653
68.4386,2661
68.5073,2605
68.576,2574
68.6446,2638
68.7133,2574
68.7819,2619
68.8506,2614
68.9192,2563
68.9879,2506
69.0566,2582
69.1252,2615
69.1939,2692
69.2625,2696
69.3312,2507
69.3998,2504
69.4685,2549
69.5372,2547
69.6058,2553
69.6745,2498
69.7431,2573
69.8118,2477
69.8804,2457
69.9491,2623
70.0178,2519
70.0864,2471
70.1551,2596
70.2237,2522
70.2924,2522
70.361,2570
70.4297,2551
70.4984,2491
70.567,2560
70.6357,2499
70.7043,2565
70.773,2513
70.8416,2460
70.9103,2566
70.979,2503
71.0476,2472
71.11627,2503
71.1849,2490
71.2536,2492
71.3222,2507
71.3909,2596
71.4596,2533
71.5282,2558
71.5969,2418
71.6655,2473
71.7342,2509
71.8028,2356
71.8715,2417
71.9402,2456
72.0088,2514
72.0775,2510
72.1461,2425
72.2148,2452
72.2834,2398
72.3521,2433
72.4208,2455
72.4894,2387
72.5581,2386
72.6267,2424
72.6954,2483
72.764,2471
72.8327,2407
72.9014,2379
72.97,2444
73.0387,2412
73.1073,2384
73.176,2464
73.2446,2472
73.3133,2466
73.382,2443
73.4506,2406
73.5193,2338
73.5879,2367
73.6566,2414
73.7252,2423
73.7939,2342
73.8625,2298
73.9312,2480
73.9999,2376
74.0685,2494
74.1372,2439
74.2058,2251
74.2745,2399
74.3431,2394
74.4118,2320
74.4805,2312
74.5491,2330
74.6178,2267
74.6864,2304
74.7551,2349
74.8237,2331
74.8924,2371
74.9611,2345
75.0297,2380
75.0984,2309
75.167,2329
75.2357,2291
75.3043,2360
75.373,2254
75.4417,2366
75.5103,2342
75.579,2384
75.6476,2331
75.7163,2285
75.7849,2361
75.8536,2405
75.9223,2338
75.9909,2324
76.0596,2306
76.1282,2341
76.1969,2330
76.2655,2361
76.3342,2366
76.4029,2328
76.4715,2263
76.5402,2295
76.6088,2235
76.6775,2202
76.7461,2278
76.8148,2285
76.8835,2213
76.9521,2196
77.0208,2264
77.0894,2294
77.1581,2244
77.2267,2202
77.2954,2297
77.3641,2228
77.4327,2252
77.5014,2220
77.57,2239
77.6387,2255
77.7073,2256
77.776,2218
77.8447,2262
77.9133,2222
77.982,2232
78.0506,2256
78.1193,2137
78.1879,2140
78.2566,2285
78.3253,2201
78.3939,2151
78.4626,2219
78.5312,2155
78.5999,2238
78.6685,2348
78.7372,2285
78.8059,2177
78.8745,2230
78.9432,2136
79.0118,2104
79.0805,2118
79.1491,2159
79.2178,2166
79.2864,2201
79.3551,2122
79.4238,2204
79.4924,2191
79.5611,2127
79.6297,2137
79.6984,2162
79.767,2143
79.8357,2126
79.9044,2167
79.973,2158
80.0417,2149
80.1103,2102
80.179,2210
80.2476,2133
80.3163,2129
80.385,2068
80.4536,2072
80.5223,2119
80.5909,2195
80.6596,2113
80.7282,2170
80.7969,2201
80.8656,2129
80.9342,2071
81.0029,2139
81.0715,2045
81.1402,2107
81.2088,2142
81.2775,2053
81.3462,2031
81.4148,2060
81.4835,2124
81.5521,2074
81.6208,2052
81.6894,2092
81.7581,2063
81.8268,2108
81.8954,2121
81.9641,2043
82.0327,2055
82.1014,2015
82.17,2063
82.2387,2111
82.3074,2032
82.376,1992
82.4447,2001
82.5133,2044
82.582,2004
82.6506,1954
82.7193,2065
82.788,2008
82.8566,2053
82.9253,2021
82.9939,2054
83.0626,2016
83.1312,1963
83.1999,2025
83.2686,2019
83.3372,2002
83.4059,1997
83.4745,1945
83.5432,1973
83.6118,1971
83.6805,1971
83.7492,1958
83.8178,1950
83.8865,1930
83.9551,1933
84.0238,1926
84.0924,1914
84.1611,1933
84.2298,1984
84.2984,1999
84.3671,1994
84.4357,1923
84.5044,1842
84.573,1953
84.6417,1866
84.7104,1929
84.779,1928
84.8477,1830
84.9163,2000
84.985,1964
85.0536,1835
85.1223,1863
85.1909,1932
85.2596,1944
85.3283,1953
85.3969,1954
85.4656,1892
85.5342,1961
85.6029,1850
85.6715,1998
85.7402,1874
85.8089,1904
85.8775,1896
85.9462,1883
86.0148,1921
86.0835,1900
86.1521,1813
86.2208,1883
86.2895,1830
86.3581,1852
86.4268,1852
86.4954,1807
86.5641,1855
86.6327,1800
86.7014,1859
86.7701,1886
86.8387,1741
86.9074,1901
86.976,1808
87.0447,1787
87.1133,1756
87.182,1730
87.2507,1838
87.3193,1788
87.388,1927
87.4566,1866
87.5253,1908
87.5939,1741
87.6626,1730
87.7313,1810
87.7999,1856
87.8686,1680
87.9372,1950
88.0059,1819
88.0745,1815
88.1432,1795
88.2119,1862
88.2805,1811
88.3492,1807
88.4178,1777
88.4865,1693
88.5551,1765
88.6238,1680
88.6925,1793
88.7611,1703
88.8298,1783
88.8984,1741
88.9671,1718
89.0357,1728
89.1044,1702
89.1731,1726
89.2417,1814
89.3104,1709
89.379,1735
89.4477,1730
89.5163,1711
89.585,1662
89.6537,1735
89.7223,1689
89.791,1686
89.8596,1704
89.9283,1695
89.9969,1648
90.0656,1658
90.1343,1695
90.2029,1705
90.2716,1652
90.3402,1696
90.4089,1697
90.4775,1670
90.5462,1702
90.6148,1712
90.6835,1599
90.7522,1671
90.8208,1787
90.8895,1714
90.9581,1699
91.0268,1718
91.0954,1706
91.1641,1685
91.2328,1636
91.3014,1677
91.3701,1712
91.4387,1702
91.5074,1644
91.576,1593
91.6447,1577
91.7134,1714
91.782,1615
91.8507,1606
91.9193,1637
91.988,1644
92.0566,1606
92.1253,1567
92.194,1575
92.2626,1643
92.3313,1578
92.3999,1648
92.4686,1634
92.5372,1626
92.6059,1627
92.6746,1560
92.7432,1607
92.8119,1564
92.8805,1591
92.9492,1640
93.0178,1572
93.0865,1619
93.1552,1562
93.2238,1637
93.2925,1619
93.3611,1595
93.4298,1648
93.4984,1589
93.5671,1615
93.6358,1572
93.7044,1573
93.7731,1659
93.8417,1519
93.9104,1511
93.979,1624
94.0477,1612
94.1164,1573
94.185,1602
94.2537,1634
94.3223,1536
94.391,1537
94.4596,1580
94.5283,1507
94.597,1582
94.6656,1524
94.7343,1541
94.8029,1652
94.8716,1537
94.9402,1538
95.0089,1501
95.0776,1482
95.1462,1574
95.2149,1539
95.2835,1572
95.3522,1603
95.4208,1588
95.4895,1565
95.5582,1599
95.6268,1599
95.6955,1475
95.7641,1496
95.8328,1603
95.9014,1508
95.9701,1588
96.0388,1465
96.1074,1542
96.1761,1479
96.2447,1443
96.3134,1466
96.382,1555
96.4507,1580
96.5193,1619
96.588,1520
96.6567,1550
96.7253,1537
96.794,1559
96.8626,1535
96.9313,1503
96.9999,1610
97.0686,1485
97.1373,1476
97.2059,1514
97.2746,1505
97.3432,1552
97.4119,1527
97.4805,1534
97.5492,1497
97.6179,1540
97.6865,1503
97.7552,1464
97.8238,1490
97.8925,1530
97.9611,1503
98.0298,1459
98.0985,1564
98.1671,1441
98.2358,1496
98.3044,1511
98.3731,1502
98.4417,1495
98.5104,1488
98.5791,1513
98.6477,1503
98.7164,1522
98.785,1501
98.8537,1499
98.9223,1417
98.991,1443
99.0597,1554
99.1283,1515
99.197,1530
99.2656,1414
99.3343,1496
99.4029,1468
99.4716,1469
99.5403,1441
99.6089,1506
99.6776,1456
99.7462,1479
99.8149,1424
99.8835,1536
99.9522,1497
99.9934,14