File: PhD Work/XRD Plotter_240524/ALMW25_raw_280524.csv
10.0116,7200
10.0802,7239
10.1489,7217
10.2175,7136
10.2862,7141
10.35485,7182
10.4235,7039
10.4922,7172
10.5608,7230
10.6295,7120
10.6981,7128
10.7668,7052
10.8354,7144
10.9041,7143
10.9728,7196
11.0414,7042
11.1101,7174
11.1787,7140
11.2474,7025
11.316,7134
11.3847,7120
11.4534,7148
11.522,7287
11.5907,7148
11.6593,7115
11.728,7164
11.7966,6973
11.8653,7061
11.934,7090
12.0026,7049
12.0713,7107
12.1399,7008
12.2086,7029
12.2772,6950
12.3459,7112
12.4146,6937
12.4832,7060
12.5519,6948
12.6205,6790
12.6892,7077
12.7578,7036
12.8265,7007
12.8952,6909
12.9638,6888
13.0325,7062
13.1011,6928
13.1698,6842
13.2384,6894
13.3071,6851
13.3758,6948
13.4444,6779
13.5131,6951
13.5817,6871
13.6504,6775
13.719,6736
13.7877,6856
13.8564,6923
13.925,6834
13.9937,6808
14.0623,6948
14.131,6883
14.1996,6941
14.2683,7063
14.337,6879
14.4056,6995
14.4743,6962
14.5429,6958
14.6116,6839
14.6802,6810
14.7489,6779
14.8176,6986
14.8862,6862
14.9549,6888
15.0235,6859
15.0922,6901
15.1608,7005
15.2295,6917
15.2982,6786
15.3668,7007
15.4355,6951
15.5041,6962
15.5728,6880
15.6414,6924
15.7101,7076
15.7788,7050
15.8474,7051
15.9161,7032
15.9847,7037
16.0534,7034
16.122,7024
16.1907,7149
16.2593,7059
16.328,7087
16.3967,7125
16.4653,7296
16.534,7218
16.6026,7226
16.6713,7171
16.7399,7268
16.8086,7228
16.8773,7246
16.9459,7237
17.0146,7408
17.0832,7167
17.1519,7456
17.2205,7334
17.2892,7434
17.3579,7500
17.4265,7366
17.4952,7355
17.5638,7534
17.6325,7483
17.7011,7420
17.7698,7534
17.8385,7514
17.9071,7755
17.9758,7727
18.0444,7863
18.1131,7680
18.1817,7737
18.2504,7696
18.3191,7777
18.3877,7746
18.4564,7854
18.525,8019
18.5937,7848
18.6623,7961
18.731,7974
18.7997,8089
18.8683,7955
18.937,8166
19.0056,8076
19.0743,8059
19.1429,8226
19.2116,8319
19.2803,8201
19.3489,8118
19.4176,8361
19.4862,8283
19.5549,8456
19.6235,8405
19.6922,8464
19.7609,8257
19.8295,8499
19.8982,8496
19.9668,8497
20.0355,8331
20.1041,8393
20.1728,8397
20.2415,8699
20.3101,8631
20.3788,8745
20.4474,8473
20.5161,8735
20.5847,8610
20.6534,8506
20.7221,8749
20.7907,8627
20.8594,8742
20.928,8869
20.9967,8595
21.0653,8771
21.134,8921
21.2027,8813
21.2713,8867
21.34,8953
21.4086,8917
21.4773,8789
21.5459,8946
21.6146,8922
21.6833,8967
21.7519,8929
21.8206,9026
21.8892,8800
21.9579,9068
22.0265,9093
22.0952,8912
22.1638,8964
22.2325,9006
22.3012,9212
22.3698,9228
22.4385,9062
22.5071,9060
22.5758,9098
22.6444,9167
22.7131,9355
22.7818,9188
22.8504,9117
22.9191,9290
22.9877,9184
23.0564,9089
23.125,9146
23.1937,9133
23.2624,9152
23.331,9193
23.3997,9166
23.4683,9060
23.537,9257
23.6056,9130
23.6743,9271
23.743,9317
23.8116,9209
23.8803,9331
23.9489,9237
24.0176,9357
24.0862,9272
24.1549,9382
24.2236,9398
24.2922,9197
24.3609,9044
24.4295,9319
24.4982,9148
24.5668,9299
24.6355,9375
24.7042,9238
24.7728,9262
24.8415,9077
24.9101,9386
24.9788,9251
25.0474,9262
25.1161,9332
25.1848,9352
25.2534,9387
25.3221,9095
25.3907,9107
25.4594,9341
25.528,9333
25.5967,8982
25.6654,9351
25.734,8834
25.8027,9287
25.8713,8961
25.94,9119
26.0086,9060
26.0773,9233
26.146,9150
26.2146,9126
26.2833,9111
26.3519,8962
26.4206,8959
26.4892,8780
26.5579,8928
26.6266,8907
26.6952,8734
26.7639,8831
26.8325,8920
26.9012,8899
26.9698,8784
27.0385,8662
27.1072,8753
27.1758,8888
27.2445,8983
27.3131,8723
27.3818,8834
27.4504,8868
27.5191,8748
27.5877,8692
27.6564,8627
27.7251,8593
27.7937,8543
27.8624,8426
27.931,8482
27.9997,8477
28.0683,8411
28.137,8388
28.2057,8374
28.2743,8418
28.343,8393
28.4116,8208
28.4803,8344
28.5489,8232
28.6176,8191
28.6863,8160
28.7549,8221
28.8236,7972
28.8922,8219
28.9609,8099
29.0295,8019
29.0982,7949
29.1669,8091
29.2355,8007
29.3042,7901
29.3728,7738
29.4415,7958
29.5101,7756
29.5788,7722
29.6475,7676
29.7161,7627
29.7848,7761
29.8534,7683
29.9221,7607
29.9907,7489
30.0594,7585
30.1281,7550
30.1967,7476
30.2654,7437
30.334,7261
30.4027,7408
30.4713,7392
30.54,7324
30.6087,7191
30.6773,7144
30.746,7106
30.8146,7057
30.8833,7288
30.9519,6938
31.0206,7044
31.0893,6875
31.1579,7123
31.2266,7084
31.2952,6859
31.3639,6867
31.4325,6911
31.5012,6953
31.5699,6971
31.6385,6729
31.7072,6879
31.7758,6754
31.8445,6770
31.9131,6741
31.9818,6848
32.0505,6642
32.1191,6537
32.1878,6757
32.2564,6779
32.3251,6543
32.3937,6558
32.4624,6605
32.5311,6756
32.5997,6415
32.6684,6458
32.737,6214
32.8057,6226
32.8743,6289
32.943,6330
33.0117,6235
33.0803,6140
33.149,6160
33.2176,6139
33.2863,6240
33.3549,6185
33.4236,5982
33.4922,5967
33.5609,6059
33.6296,6047
33.6982,5804
33.7669,5815
33.8355,5929
33.9042,5970
33.9728,5752
34.0415,5732
34.1102,5909
34.1788,5724
34.2475,5842
34.3161,5693
34.3848,5622
34.4534,5650
34.5221,5719
34.5908,5844
34.6594,5551
34.7281,5657
34.7967,5562
34.8654,5583
34.934,5524
35.0027,5379
35.0714,5458
35.14,5339
35.2087,5370
35.2773,5439
35.346,5382
35.4146,5445
35.4833,5594
35.552,5391
35.6206,5262
35.6893,5212
35.7579,5345
35.8266,5241
35.8952,5396
35.9639,5221
36.0326,5207
36.1012,5281
36.1699,5167
36.2385,5106
36.3072,5120
36.3758,5219
36.4445,5263
36.5132,5239
36.5818,5086
36.6505,5356
36.7191,5116
36.7878,5312
36.8564,5092
36.9251,5169
36.9938,5063
37.0624,5066
37.1311,4910
37.1997,4830
37.2684,4882
37.337,4923
37.4057,4799
37.4744,4899
37.543,4960
37.6117,4893
37.6803,4593
37.749,4716
37.8176,4640
37.8863,4806
37.955,4686
38.0236,4652
38.0923,4611
38.1609,4708
38.2296,4601
38.2982,4475
38.3669,4591
38.4356,4450
38.5042,4562
38.5729,4447
38.6415,4443
38.7102,4429
38.7788,4533
38.8475,4422
38.9162,4534
38.9848,4378
39.0535,4507
39.1221,4390
39.1908,4434
39.2594,4318
39.3281,4429
39.3967,4299
39.4654,4446
39.5341,4434
39.6027,4301
39.6714,4401
39.74,4365
39.8087,4299
39.8773,4356
39.946,4198
40.0147,4332
40.0833,4310
40.152,4336
40.2206,4414
40.2893,4074
40.3579,4220
40.4266,4349
40.4953,4178
40.5639,4245
40.6326,4312
40.7012,4336
40.7699,4245
40.8385,4266
40.9072,4160
40.9759,4095
41.0445,4233
41.1132,4235
41.1818,4159
41.2505,4207
41.3191,4219
41.3878,4289
41.4565,4226
41.5251,4186
41.5938,4002
41.6624,4145
41.7311,4156
41.7997,4287
41.8684,4199
41.9371,4168
42.0057,4185
42.0744,4240
42.143,4233
42.2117,4295
42.2803,4173
42.349,4153
42.4177,4133
42.4863,4114
42.555,4067
42.6236,4168
42.6923,4241
42.7609,4264
42.8296,4212
42.8983,4209
42.9669,4214
43.0356,4241
43.1042,4212
43.1729,4179
43.2415,4058
43.3102,4070
43.3789,4244
43.4475,4127
43.5162,4178
43.5848,4172
43.6535,4158
43.7221,4108
43.7908,4173
43.8595,4286
43.9281,4240
43.9968,4207
44.0654,4147
44.1341,4181
44.2027,4121
44.2714,4254
44.3401,4147
44.4087,4099
44.4774,4049
44.546,4102
44.6147,4198
44.6833,4283
44.752,4243
44.8206,4255
44.8893,4032
44.958,4179
45.0266,4111
45.0953,4051
45.1639,4070
45.2326,4196
45.3012,4083
45.3699,4052
45.4386,4185
45.5072,4071
45.5759,4169
45.6445,4043
45.7132,4061
45.7818,4088
45.8505,3956
45.9192,4158
45.9878,4023
46.0565,4047
46.1251,4013
46.1938,3991
46.2624,4147
46.3311,3997
46.3998,3937
46.4684,4074
46.5371,4026
46.6057,4009
46.6744,4221
46.743,4017
46.8117,4006
46.8804,3988
46.949,3882
47.0177,3868
47.0863,4047
47.155,3984
47.2236,3923
47.2923,3870
47.361,3953
47.4296,3876
47.4983,3958
47.5669,3855
47.6356,3945
47.7042,3827
47.7729,3806
47.8416,3687
47.9102,3822
47.9789,3781
48.0475,3810
48.1162,3845
48.1848,3871
48.2535,3776
48.3222,3798
48.3908,3809
48.4595,3773
48.5281,3857
48.5968,3806
48.6654,3745
48.7341,3719
48.8028,3696
48.8714,3672
48.9401,3697
49.0087,3842
49.0774,3703
49.146,3864
49.2147,3729
49.2834,3654
49.352,3681
49.4207,3676
49.4893,3754
49.558,3720
49.6266,3734
49.6953,3718
49.764,3835
49.8326,3639
49.9013,3634
49.9699,3772
50.0386,3747
50.1072,3782
50.1759,3690
50.2446,3695
50.3132,3731
50.3819,3731
50.4505,3747
50.5192,3660
50.5878,3474
50.6565,3534
50.7251,3488
50.7938,3576
50.8625,3408
50.9311,3466
50.9998,3573
51.0684,3436
51.1371,3385
51.2057,3444
51.2744,3507
51.3431,3323
51.4117,3466
51.4804,3401
51.549,3478
51.6177,3405
51.6863,3522
51.755,3418
51.8237,3281
51.8923,3384
51.961,3392
52.0296,3426
52.0983,3413
52.1669,3300
52.2356,3287
52.3043,3451
52.3729,3275
52.4416,3210
52.5102,3359
52.5789,3288
52.6475,3276
52.7162,3230
52.7849,3187
52.8535,3348
52.9222,3194
52.9908,3232
53.0595,3322
53.1281,3193
53.1968,3126
53.2655,3221
53.3341,3275
53.4028,3190
53.4714,3204
53.5401,3233
53.6087,3225
53.6774,3119
53.7461,3075
53.8147,3160
53.8834,3224
53.952,3234
54.0207,3069
54.0893,3147
54.158,3167
54.2267,3194
54.2953,3133
54.364,3107
54.4326,3077
54.5013,3107
54.5699,3089
54.6386,3061
54.7073,3106
54.7759,3101
54.8446,3030
54.9132,3016
54.9819,2990
55.0505,3019
55.1192,3057
55.1879,3082
55.2565,3034
55.3252,3017
55.3938,2988
55.4625,3047
55.5311,2991
55.5998,2951
55.6685,2976
55.7371,2990
55.8058,3035
55.8744,2956
55.9431,2923
56.0117,2947
56.0804,3004
56.1491,2915
56.2177,3124
56.2864,2998
56.355,2948
56.4237,2991
56.4923,3009
56.561,2956
56.6296,2860
56.6983,2981
56.767,2913
56.8356,2942
56.9043,3007
56.9729,2937
57.0416,2853
57.1102,2908
57.1789,2891
57.2476,2883
57.3162,2988
57.3849,2898
57.4535,2921
57.5222,2933
57.5908,2885
57.6595,2910
57.7282,2802
57.7968,2896
57.8655,2889
57.9341,2907
58.0028,2914
58.0714,2858
58.1401,2960
58.2088,2881
58.2774,2860
58.3461,2899
58.4147,2924
58.4834,2853
58.552,2918
58.6207,2794
58.6894,2855
58.758,2802
58.8267,2812
58.8953,2725
58.964,2813
59.0326,2897
59.1013,2849
59.17,2770
59.2386,2800
59.3073,2781
59.3759,2874
59.4446,2824
59.5132,2874
59.5819,2769
59.6506,2791
59.7192,2848
59.7879,2770
59.8565,2818
59.9252,2791
59.9938,2802
60.0625,2791
60.1312,2748
60.1998,2768
60.2685,2773
60.3371,2825
60.4058,2636
60.4744,2743
60.5431,2731
60.6118,2782
60.6804,2834
60.7491,2799
60.8177,2915
60.8864,2849
60.955,2810
61.0237,2822
61.0924,2779
61.161,2724
61.2297,2753
61.2983,2759
61.367,2760
61.4356,2712
61.5043,2740
61.573,2716
61.6416,2788
61.7103,2943
61.7789,2800
61.8476,2805
61.9162,2682
61.9849,2644
62.0535,2721
62.1222,2856
62.1909,2715
62.2595,2749
62.3282,2681
62.3968,2650
62.4655,2696
62.5341,2639
62.6028,2711
62.6715,2827
62.7401,2682
62.8088,2754
62.8774,2744
62.9461,2725
63.0147,2758
63.0834,2863
63.1521,2766
63.2207,2761
63.2894,2695
63.358,2615
63.4267,2683
63.4953,2661
63.564,2606
63.6327,2712
63.7013,2732
63.77,2643
63.8386,2716
63.9073,2680
63.9759,2748
64.0446,2714
64.1133,2733
64.1819,2742
64.2506,2770
64.3192,2762
64.3879,2695
64.4565,2705
64.5252,2666
64.5939,2730
64.6625,2671
64.7312,2666
64.7998,2648
64.8685,2795
64.9371,2747
65.0058,2621
65.0745,2708
65.1431,2631
65.2118,2644
65.2804,2767
65.3491,2733
65.4177,2678
65.4864,2693
65.5551,2720
65.6237,2628
65.6924,2766
65.761,2639
65.8297,2695
65.8983,2653
65.967,2692
66.0357,2669
66.1043,2637
66.173,2663
66.2416,2682
66.3103,2727
66.3789,2689
66.4476,2669
66.5163,2725
66.5849,2636
66.6536,2653
66.7222,2712
66.7909,2623
66.8595,2644
66.9282,2560
66.9969,2587
67.0655,2687
67.1342,2557
67.2028,2519
67.2715,2741
67.3401,2592
67.4088,2717
67.4775,2624
67.5461,2676
67.6148,2701
67.6834,2494
67.7521,2575
67.8207,2678
67.8894,2592
67.958,2639
68.0267,2648
68.0954,2637
68.164,2656
68.2327,2625
68.3013,2535
68.37,2663
68.4386,2678
68.5073,2605
68.576,2616
68.6446,2582
68.7133,2633
68.7819,2503
68.8506,2599
68.9192,2502
68.9879,2556
69.0566,2582
69.1252,2622
69.1939,2552
69.2625,2541
69.3312,2539
69.3998,2628
69.4685,2527
69.5372,2562
69.6058,2589
69.6745,2584
69.7431,2571
69.8118,2629
69.8804,2397
69.9491,2551
70.0178,2629
70.0864,2543
70.1551,2506
70.2237,2489
70.2924,2571
70.361,2460
70.4297,2394
70.4984,2481
70.567,2554
70.6357,2546
70.7043,2537
70.773,2581
70.8416,2552
70.9103,2529
70.979,2468
71.0476,2498
71.11627,2517
71.1849,2472
71.2536,2530
71.3222,2420
71.3909,2443
71.4596,2559
71.5282,2396
71.5969,2553
71.6655,2506
71.7342,2536
71.8028,2569
71.8715,2433
71.9402,2477
72.0088,2435
72.0775,2432
72.1461,2373
72.2148,2409
72.2834,2441
72.3521,2371
72.4208,2506
72.4894,2445
72.5581,2439
72.6267,2392
72.6954,2344
72.764,2413
72.8327,2565
72.9014,2415
72.97,2378
73.0387,2479
73.1073,2352
73.176,2416
73.2446,2402
73.3133,2448
73.382,2413
73.4506,2296
73.5193,2367
73.5879,2406
73.6566,2288
73.7252,2329
73.7939,2364
73.8625,2416
73.9312,2350
73.9999,2379
74.0685,2365
74.1372,2387
74.2058,2447
74.2745,2353
74.3431,2395
74.4118,2275
74.4805,2354
74.5491,2447
74.6178,2384
74.6864,2377
74.7551,2367
74.8237,2396
74.8924,2339
74.9611,2257
75.0297,2352
75.0984,2383
75.167,2331
75.2357,2399
75.3043,2217
75.373,2359
75.4417,2290
75.5103,2290
75.579,2364
75.6476,2256
75.7163,2307
75.7849,2390
75.8536,2266
75.9223,2284
75.9909,2386
76.0596,2421
76.1282,2435
76.1969,2312
76.2655,2382
76.3342,2351
76.4029,2407
76.4715,2342
76.5402,2271
76.6088,2306
76.6775,2185
76.7461,2177
76.8148,2303
76.8835,2247
76.9521,2224
77.0208,2274
77.0894,2276
77.1581,2266
77.2267,2221
77.2954,2248
77.3641,2145
77.4327,2297
77.5014,2124
77.57,2180
77.6387,2267
77.7073,2213
77.776,2183
77.8447,2224
77.9133,2220
77.982,2253
78.0506,2165
78.1193,2243
78.1879,2243
78.2566,2195
78.3253,2330
78.3939,2247
78.4626,2185
78.5312,2208
78.5999,2262
78.6685,2308
78.7372,2149
78.8059,2194
78.8745,2157
78.9432,2248
79.0118,2186
79.0805,2139
79.1491,2107
79.2178,2168
79.2864,2142
79.3551,2231
79.4238,2251
79.4924,2180
79.5611,2147
79.6297,2145
79.6984,2226
79.767,2035
79.8357,2218
79.9044,2085
79.973,2163
80.0417,2162
80.1103,2121
80.179,2088
80.2476,2156
80.3163,2147
80.385,2110
80.4536,2061
80.5223,2050
80.5909,2101
80.6596,2204
80.7282,2155
80.7969,2067
80.8656,2156
80.9342,2043
81.0029,2112
81.0715,2079
81.1402,2080
81.2088,2053
81.2775,2102
81.3462,2101
81.4148,2086
81.4835,2113
81.5521,2038
81.6208,2122
81.6894,2108
81.7581,2076
81.8268,2096
81.8954,2065
81.9641,2099
82.0327,2066
82.1014,2071
82.17,1841
82.2387,2002
82.3074,2022
82.376,1969
82.4447,2140
82.5133,2013
82.582,2064
82.6506,2075
82.7193,2028
82.788,2051
82.8566,1995
82.9253,2092
82.9939,2089
83.0626,2000
83.1312,2028
83.1999,1913
83.2686,2063
83.3372,2015
83.4059,2078
83.4745,2006
83.5432,1957
83.6118,1868
83.6805,2006
83.7492,2042
83.8178,1998
83.8865,2026
83.9551,2010
84.0238,1949
84.0924,2022
84.1611,1982
84.2298,1940
84.2984,1935
84.3671,1985
84.4357,1878
84.5044,1920
84.573,1973
84.6417,1952
84.7104,1946
84.779,1925
84.8477,1985
84.9163,1960
84.985,1973
85.0536,2037
85.1223,2038
85.1909,1945
85.2596,1918
85.3283,1933
85.3969,1911
85.4656,1949
85.5342,1918
85.6029,1908
85.6715,1904
85.7402,1910
85.8089,1888
85.8775,1969
85.9462,1914
86.0148,1875
86.0835,1912
86.1521,1870
86.2208,2009
86.2895,1888
86.3581,1829
86.4268,1931
86.4954,1876
86.5641,1854
86.6327,1922
86.7014,1934
86.7701,1887
86.8387,1884
86.9074,1860
86.976,1870
87.0447,1874
87.1133,1899
87.182,1803
87.2507,1788
87.3193,1826
87.388,1837
87.4566,1800
87.5253,1796
87.5939,1813
87.6626,1846
87.7313,1837
87.7999,1898
87.8686,1881
87.9372,1927
88.0059,1811
88.0745,1855
88.1432,1843
88.2119,1774
88.2805,1783
88.3492,1869
88.4178,1790
88.4865,1821
88.5551,1841
88.6238,1832
88.6925,1794
88.7611,1762
88.8298,1915
88.8984,1724
88.9671,1755
89.0357,1757
89.1044,1767
89.1731,1760
89.2417,1695
89.3104,1725
89.379,1786
89.4477,1734
89.5163,1743
89.585,1738
89.6537,1652
89.7223,1709
89.791,1792
89.8596,1747
89.9283,1739
89.9969,1647
90.0656,1707
90.1343,1719
90.2029,1735
90.2716,1734
90.3402,1717
90.4089,1561
90.4775,1695
90.5462,1686
90.6148,1732
90.6835,1657
90.7522,1706
90.8208,1747
90.8895,1704
90.9581,1723
91.0268,1692
91.0954,1734
91.1641,1690
91.2328,1733
91.3014,1718
91.3701,1764
91.4387,1701
91.5074,1658
91.576,1684
91.6447,1687
91.7134,1620
91.782,1718
91.8507,1658
91.9193,1682
91.988,1661
92.0566,1707
92.1253,1663
92.194,1736
92.2626,1593
92.3313,1599
92.3999,1601
92.4686,1560
92.5372,1687
92.6059,1612
92.6746,1680
92.7432,1693
92.8119,1579
92.8805,1677
92.9492,1588
93.0178,1616
93.0865,1690
93.1552,1686
93.2238,1573
93.2925,1621
93.3611,1573
93.4298,1655
93.4984,1613
93.5671,1622
93.6358,1592
93.7044,1702
93.7731,1663
93.8417,1579
93.9104,1608
93.979,1570
94.0477,1549
94.1164,1631
94.185,1573
94.2537,1589
94.3223,1520
94.391,1593
94.4596,1570
94.5283,1593
94.597,1638
94.6656,1556
94.7343,1662
94.8029,1577
94.8716,1512
94.9402,1593
95.0089,1500
95.0776,1632
95.1462,1534
95.2149,1508
95.2835,1581
95.3522,1554
95.4208,1640
95.4895,1590
95.5582,1605
95.6268,1596
95.6955,1455
95.7641,1464
95.8328,1631
95.9014,1540
95.9701,1538
96.0388,1498
96.1074,1590
96.1761,1474
96.2447,1490
96.3134,1573
96.382,1531
96.4507,1504
96.5193,1557
96.588,1541
96.6567,1610
96.7253,1505
96.794,1546
96.8626,1537
96.9313,1474
96.9999,1582
97.0686,1540
97.1373,1537
97.2059,1557
97.2746,1554
97.3432,1597
97.4119,1427
97.4805,1595
97.5492,1552
97.6179,1546
97.6865,1419
97.7552,1582
97.8238,1529
97.8925,1581
97.9611,1558
98.0298,1545
98.0985,1548
98.1671,1531
98.2358,1537
98.3044,1447
98.3731,1551
98.4417,1504
98.5104,1535
98.5791,1533
98.6477,1485
98.7164,1548
98.785,1554
98.8537,1545
98.9223,1508
98.991,1491
99.0597,1547
99.1283,1556
99.197,1464
99.2656,1570
99.3343,1513
99.4029,1466
99.4716,1425
99.5403,1564
99.6089,1545
99.6776,1485
99.7462,1529
99.8149,1514
99.8835,1460
99.9522,1504
99.9934,14