File: PhD Work/XRD Plotter_240524/MW0_raw_280524.csv
10.0116,7273
10.0802,7439
10.1489,7491
10.2175,7309
10.2862,7482
10.35485,7364
10.4235,7400
10.4922,7259
10.5608,7430
10.6295,7256
10.6981,7357
10.7668,7523
10.8354,7297
10.9041,7509
10.9728,7407
11.0414,7176
11.1101,7159
11.1787,7317
11.2474,7204
11.316,7152
11.3847,7247
11.4534,7281
11.522,7257
11.5907,7167
11.6593,7199
11.728,7256
11.7966,7192
11.8653,7093
11.934,7121
12.0026,7168
12.0713,7107
12.1399,7258
12.2086,7103
12.2772,7040
12.3459,7192
12.4146,7081
12.4832,6889
12.5519,7229
12.6205,6998
12.6892,7064
12.7578,7206
12.8265,6976
12.8952,7122
12.9638,6911
13.0325,7029
13.1011,7080
13.1698,7064
13.2384,7096
13.3071,7049
13.3758,6988
13.4444,6822
13.5131,6956
13.5817,7033
13.6504,6761
13.719,6921
13.7877,6816
13.8564,6709
13.925,6993
13.9937,6899
14.0623,6894
14.131,6823
14.1996,7020
14.2683,6674
14.337,6943
14.4056,7082
14.4743,6910
14.5429,7021
14.6116,7023
14.6802,6978
14.7489,6919
14.8176,6932
14.8862,6944
14.9549,7091
15.0235,6874
15.0922,6939
15.1608,6935
15.2295,6938
15.2982,6960
15.3668,7180
15.4355,7062
15.5041,6910
15.5728,7096
15.6414,6737
15.7101,7012
15.7788,7010
15.8474,6949
15.9161,6998
15.9847,7118
16.0534,7151
16.122,7155
16.1907,7060
16.2593,7188
16.328,7111
16.3967,7221
16.4653,7034
16.534,7255
16.6026,7487
16.6713,7200
16.7399,7218
16.8086,7211
16.8773,7200
16.9459,7385
17.0146,7428
17.0832,7565
17.1519,7332
17.2205,7364
17.2892,7368
17.3579,7514
17.4265,7375
17.4952,7613
17.5638,7610
17.6325,7587
17.7011,7614
17.7698,7619
17.8385,7599
17.9071,7584
17.9758,7627
18.0444,7709
18.1131,7697
18.1817,7798
18.2504,7646
18.3191,7688
18.3877,7932
18.4564,7941
18.525,7884
18.5937,7687
18.6623,8076
18.731,7872
18.7997,7918
18.8683,8007
18.937,7923
19.0056,8062
19.0743,8072
19.1429,8117
19.2116,8085
19.2803,8103
19.3489,8031
19.4176,8251
19.4862,8189
19.5549,8390
19.6235,8373
19.6922,8133
19.7609,8289
19.8295,8298
19.8982,8274
19.9668,8290
20.0355,8435
20.1041,8556
20.1728,8510
20.2415,8516
20.3101,8355
20.3788,8295
20.4474,8643
20.5161,8593
20.5847,8576
20.6534,8386
20.7221,8461
20.7907,8638
20.8594,8678
20.928,8776
20.9967,8725
21.0653,8881
21.134,8640
21.2027,8927
21.2713,8796
21.34,8686
21.4086,8569
21.4773,8868
21.5459,9063
21.6146,8851
21.6833,8961
21.7519,8938
21.8206,8991
21.8892,8762
21.9579,8873
22.0265,8782
22.0952,8779
22.1638,8716
22.2325,9081
22.3012,9143
22.3698,9062
22.4385,9061
22.5071,9046
22.5758,8936
22.6444,8985
22.7131,8938
22.7818,9268
22.8504,9037
22.9191,9224
22.9877,9189
23.0564,9305
23.125,9345
23.1937,9114
23.2624,9240
23.331,9245
23.3997,9163
23.4683,9079
23.537,9224
23.6056,9126
23.6743,9229
23.743,9292
23.8116,9292
23.8803,9219
23.9489,9107
24.0176,9415
24.0862,9228
24.1549,9382
24.2236,9326
24.2922,9346
24.3609,9380
24.4295,9090
24.4982,9445
24.5668,9362
24.6355,9422
24.7042,9305
24.7728,9081
24.8415,9395
24.9101,9380
24.9788,9452
25.0474,9373
25.1161,9264
25.1848,9395
25.2534,9123
25.3221,9166
25.3907,9202
25.4594,9192
25.528,9351
25.5967,9035
25.6654,9092
25.734,9159
25.8027,9158
25.8713,9046
25.94,9312
26.0086,9110
26.0773,9087
26.146,9171
26.2146,9112
26.2833,9129
26.3519,9075
26.4206,9000
26.4892,8950
26.5579,9123
26.6266,9109
26.6952,8953
26.7639,9092
26.8325,8889
26.9012,8733
26.9698,8958
27.0385,8959
27.1072,8737
27.1758,8982
27.2445,8851
27.3131,8765
27.3818,8568
27.4504,8907
27.5191,8710
27.5877,8723
27.6564,8679
27.7251,8594
27.7937,8876
27.8624,8605
27.931,8678
27.9997,8533
28.0683,8336
28.137,8415
28.2057,8431
28.2743,8560
28.343,8380
28.4116,8213
28.4803,8211
28.5489,8186
28.6176,8306
28.6863,8266
28.7549,8089
28.8236,8248
28.8922,8236
28.9609,7995
29.0295,7957
29.0982,8039
29.1669,8001
29.2355,7940
29.3042,7868
29.3728,8071
29.4415,7736
29.5101,7930
29.5788,7804
29.6475,7832
29.7161,7758
29.7848,7766
29.8534,7606
29.9221,7738
29.9907,7357
30.0594,7670
30.1281,7540
30.1967,7653
30.2654,7285
30.334,7475
30.4027,7453
30.4713,7477
30.54,7418
30.6087,7328
30.6773,7119
30.746,7387
30.8146,7326
30.8833,7044
30.9519,7145
31.0206,7003
31.0893,7097
31.1579,6968
31.2266,6972
31.2952,7113
31.3639,6871
31.4325,6627
31.5012,6935
31.5699,6811
31.6385,6778
31.7072,6883
31.7758,6747
31.8445,6708
31.9131,6621
31.9818,6702
32.0505,6693
32.1191,6566
32.1878,6747
32.2564,6537
32.3251,6643
32.3937,6665
32.4624,6663
32.5311,6641
32.5997,6280
32.6684,6402
32.737,6442
32.8057,6173
32.8743,6379
32.943,6282
33.0117,6222
33.0803,6294
33.149,6289
33.2176,6011
33.2863,5957
33.3549,5984
33.4236,6092
33.4922,5978
33.5609,6000
33.6296,5949
33.6982,5969
33.7669,6006
33.8355,5914
33.9042,5969
33.9728,5882
34.0415,5891
34.1102,5799
34.1788,5800
34.2475,5906
34.3161,5606
34.3848,5675
34.4534,5615
34.5221,5611
34.5908,5685
34.6594,5474
34.7281,5481
34.7967,5564
34.8654,5582
34.934,5478
35.0027,5573
35.0714,5349
35.14,5236
35.2087,5560
35.2773,5247
35.346,5365
35.4146,5345
35.4833,5418
35.552,5290
35.6206,5326
35.6893,5304
35.7579,5343
35.8266,5259
35.8952,5263
35.9639,5235
36.0326,5197
36.1012,5175
36.1699,5229
36.2385,5193
36.3072,5190
36.3758,5067
36.4445,5167
36.5132,5217
36.5818,5096
36.6505,5196
36.7191,5059
36.7878,5201
36.8564,5334
36.9251,5094
36.9938,5051
37.0624,5061
37.1311,4789
37.1997,5038
37.2684,4934
37.337,4984
37.4057,4856
37.4744,4717
37.543,4700
37.6117,4675
37.6803,4768
37.749,4679
37.8176,4640
37.8863,4697
37.955,4655
38.0236,4540
38.0923,4554
38.1609,4725
38.2296,4542
38.2982,4706
38.3669,4597
38.4356,4567
38.5042,4520
38.5729,4542
38.6415,4657
38.7102,4631
38.7788,4488
38.8475,4634
38.9162,4415
38.9848,4421
39.0535,4520
39.1221,4363
39.1908,4435
39.2594,4473
39.3281,4516
39.3967,4344
39.4654,4360
39.5341,4333
39.6027,4443
39.6714,4341
39.74,4283
39.8087,4318
39.8773,4283
39.946,4335
40.0147,4200
40.0833,4385
40.152,4340
40.2206,4246
40.2893,4397
40.3579,4291
40.4266,4231
40.4953,4255
40.5639,4277
40.6326,4299
40.7012,4264
40.7699,4201
40.8385,4187
40.9072,4249
40.9759,4159
41.0445,4187
41.1132,4131
41.1818,4085
41.2505,4164
41.3191,4167
41.3878,4112
41.4565,4237
41.5251,4180
41.5938,4142
41.6624,4149
41.7311,4147
41.7997,4067
41.8684,4090
41.9371,4030
42.0057,4077
42.0744,4050
42.143,4162
42.2117,4091
42.2803,4199
42.349,4200
42.4177,4006
42.4863,4130
42.555,4126
42.6236,4122
42.6923,4137
42.7609,4210
42.8296,4156
42.8983,4140
42.9669,4193
43.0356,4183
43.1042,4320
43.1729,4076
43.2415,4151
43.3102,4095
43.3789,4166
43.4475,4172
43.5162,4061
43.5848,4236
43.6535,4140
43.7221,4097
43.7908,4142
43.8595,4126
43.9281,4275
43.9968,4117
44.0654,4041
44.1341,4045
44.2027,4115
44.2714,4159
44.3401,4243
44.4087,4150
44.4774,4177
44.546,4267
44.6147,4181
44.6833,4018
44.752,4071
44.8206,4093
44.8893,4201
44.958,4181
45.0266,4177
45.0953,4039
45.1639,4077
45.2326,4006
45.3012,4136
45.3699,4032
45.4386,4124
45.5072,4118
45.5759,4082
45.6445,3912
45.7132,4177
45.7818,4010
45.8505,4033
45.9192,4127
45.9878,4032
46.0565,3959
46.1251,3931
46.1938,3974
46.2624,4095
46.3311,4081
46.3998,3980
46.4684,4021
46.5371,3907
46.6057,3942
46.6744,4027
46.743,3830
46.8117,3928
46.8804,3998
46.949,3950
47.0177,3938
47.0863,3967
47.155,3942
47.2236,4040
47.2923,3872
47.361,3956
47.4296,3832
47.4983,3923
47.5669,3930
47.6356,3971
47.7042,3904
47.7729,3915
47.8416,3939
47.9102,3839
47.9789,3784
48.0475,3822
48.1162,3791
48.1848,3828
48.2535,3785
48.3222,3842
48.3908,3710
48.4595,3818
48.5281,3758
48.5968,3680
48.6654,3706
48.7341,3820
48.8028,3896
48.8714,3822
48.9401,3721
49.0087,3637
49.0774,3793
49.146,3804
49.2147,3714
49.2834,3616
49.352,3690
49.4207,3771
49.4893,3659
49.558,3756
49.6266,3631
49.6953,3754
49.764,3743
49.8326,3811
49.9013,3733
49.9699,3881
50.0386,3819
50.1072,3737
50.1759,3686
50.2446,3663
50.3132,3653
50.3819,3646
50.4505,3567
50.5192,3610
50.5878,3611
50.6565,3526
50.7251,3633
50.7938,3514
50.8625,3478
50.9311,3432
50.9998,3529
51.0684,3357
51.1371,3425
51.2057,3533
51.2744,3415
51.3431,3443
51.4117,3548
51.4804,3393
51.549,3407
51.6177,3342
51.6863,3391
51.755,3398
51.8237,3270
51.8923,3435
51.961,3439
52.0296,3323
52.0983,3368
52.1669,3390
52.2356,3458
52.3043,3348
52.3729,3364
52.4416,3260
52.5102,3138
52.5789,3373
52.6475,3348
52.7162,3293
52.7849,3207
52.8535,3359
52.9222,3390
52.9908,3322
53.0595,3309
53.1281,3158
53.1968,3305
53.2655,3191
53.3341,3169
53.4028,3230
53.4714,3245
53.5401,3053
53.6087,3182
53.6774,3176
53.7461,3221
53.8147,3080
53.8834,3155
53.952,3134
54.0207,3209
54.0893,3141
54.158,3201
54.2267,3066
54.2953,3123
54.364,3068
54.4326,3157
54.5013,3166
54.5699,3081
54.6386,3116
54.7073,3109
54.7759,3040
54.8446,3135
54.9132,3073
54.9819,3100
55.0505,3009
55.1192,3047
55.1879,3053
55.2565,3019
55.3252,2948
55.3938,2954
55.4625,2988
55.5311,2969
55.5998,2929
55.6685,3065
55.7371,3047
55.8058,3015
55.8744,2977
55.9431,3086
56.0117,3033
56.0804,2958
56.1491,2952
56.2177,2971
56.2864,3023
56.355,2924
56.4237,2942
56.4923,2832
56.561,3036
56.6296,2922
56.6983,2988
56.767,2934
56.8356,2970
56.9043,2971
56.9729,3054
57.0416,3059
57.1102,3025
57.1789,2985
57.2476,2961
57.3162,2839
57.3849,2968
57.4535,2829
57.5222,2930
57.5908,2839
57.6595,2909
57.7282,2962
57.7968,2831
57.8655,2797
57.9341,3015
58.0028,2969
58.0714,2916
58.1401,2930
58.2088,2953
58.2774,2836
58.3461,2980
58.4147,2896
58.4834,2843
58.552,2847
58.6207,2968
58.6894,2978
58.758,2784
58.8267,2801
58.8953,2838
58.964,2914
59.0326,2813
59.1013,2940
59.17,2844
59.2386,2918
59.3073,2844
59.3759,2892
59.4446,2801
59.5132,2787
59.5819,2848
59.6506,2759
59.7192,2895
59.7879,2885
59.8565,2803
59.9252,2800
59.9938,2763
60.0625,2795
60.1312,2816
60.1998,2718
60.2685,2834
60.3371,2852
60.4058,2803
60.4744,2852
60.5431,2768
60.6118,2762
60.6804,2840
60.7491,2752
60.8177,2855
60.8864,2744
60.955,2765
61.0237,2758
61.0924,2760
61.161,2779
61.2297,2853
61.2983,2823
61.367,2688
61.4356,2766
61.5043,2748
61.573,2723
61.6416,2785
61.7103,2768
61.7789,2743
61.8476,2767
61.9162,2712
61.9849,2787
62.0535,2725
62.1222,2778
62.1909,2740
62.2595,2768
62.3282,2786
62.3968,2682
62.4655,2649
62.5341,2734
62.6028,2771
62.6715,2799
62.7401,2722
62.8088,2695
62.8774,2726
62.9461,2654
63.0147,2707
63.0834,2742
63.1521,2705
63.2207,2722
63.2894,2786
63.358,2801
63.4267,2675
63.4953,2718
63.564,2720
63.6327,2766
63.7013,2774
63.77,2717
63.8386,2696
63.9073,2672
63.9759,2739
64.0446,2733
64.1133,2640
64.1819,2656
64.2506,2662
64.3192,2660
64.3879,2665
64.4565,2733
64.5252,2688
64.5939,2704
64.6625,2634
64.7312,2702
64.7998,2717
64.8685,2759
64.9371,2676
65.0058,2706
65.0745,2645
65.1431,2702
65.2118,2574
65.2804,2624
65.3491,2699
65.4177,2620
65.4864,2601
65.5551,2685
65.6237,2691
65.6924,2680
65.761,2564
65.8297,2605
65.8983,2633
65.967,2583
66.0357,2584
66.1043,2682
66.173,2727
66.2416,2651
66.3103,2697
66.3789,2696
66.4476,2687
66.5163,2693
66.5849,2770
66.6536,2757
66.7222,2591
66.7909,2651
66.8595,2749
66.9282,2641
66.9969,2664
67.0655,2606
67.1342,2617
67.2028,2624
67.2715,2631
67.3401,2666
67.4088,2565
67.4775,2626
67.5461,2635
67.6148,2709
67.6834,2714
67.7521,2647
67.8207,2595
67.8894,2639
67.958,2621
68.0267,2606
68.0954,2655
68.164,2664
68.2327,2648
68.3013,2550
68.37,2583
68.4386,2586
68.5073,2588
68.576,2641
68.6446,2603
68.7133,2515
68.7819,2566
68.8506,2456
68.9192,2520
68.9879,2604
69.0566,2541
69.1252,2578
69.1939,2520
69.2625,2574
69.3312,2562
69.3998,2596
69.4685,2487
69.5372,2496
69.6058,2582
69.6745,2542
69.7431,2492
69.8118,2501
69.8804,2516
69.9491,2483
70.0178,2599
70.0864,2624
70.1551,2574
70.2237,2567
70.2924,2554
70.361,2451
70.4297,2522
70.4984,2524
70.567,2496
70.6357,2497
70.7043,2488
70.773,2514
70.8416,2435
70.9103,2479
70.979,2504
71.0476,2442
71.11627,2469
71.1849,2511
71.2536,2489
71.3222,2403
71.3909,2566
71.4596,2448
71.5282,2485
71.5969,2440
71.6655,2464
71.7342,2481
71.8028,2508
71.8715,2488
71.9402,2452
72.0088,2448
72.0775,2547
72.1461,2470
72.2148,2450
72.2834,2511
72.3521,2467
72.4208,2359
72.4894,2388
72.5581,2433
72.6267,2420
72.6954,2462
72.764,2442
72.8327,2493
72.9014,2355
72.97,2423
73.0387,2397
73.1073,2471
73.176,2431
73.2446,2475
73.3133,2430
73.382,2386
73.4506,2372
73.5193,2353
73.5879,2386
73.6566,2388
73.7252,2416
73.7939,2379
73.8625,2410
73.9312,2446
73.9999,2472
74.0685,2405
74.1372,2378
74.2058,2450
74.2745,2420
74.3431,2426
74.4118,2421
74.4805,2332
74.5491,2370
74.6178,2368
74.6864,2371
74.7551,2356
74.8237,2338
74.8924,2300
74.9611,2427
75.0297,2311
75.0984,2327
75.167,2350
75.2357,2368
75.3043,2349
75.373,2373
75.4417,2348
75.5103,2326
75.579,2327
75.6476,2262
75.7163,2348
75.7849,2325
75.8536,2362
75.9223,2323
75.9909,2323
76.0596,2340
76.1282,2294
76.1969,2331
76.2655,2317
76.3342,2379
76.4029,2268
76.4715,2274
76.5402,2297
76.6088,2203
76.6775,2310
76.7461,2217
76.8148,2282
76.8835,2240
76.9521,2263
77.0208,2262
77.0894,2171
77.1581,2244
77.2267,2253
77.2954,2270
77.3641,2242
77.4327,2223
77.5014,2205
77.57,2250
77.6387,2222
77.7073,2192
77.776,2203
77.8447,2313
77.9133,2185
77.982,2259
78.0506,2239
78.1193,2209
78.1879,2192
78.2566,2149
78.3253,2274
78.3939,2159
78.4626,2249
78.5312,2323
78.5999,2199
78.6685,2292
78.7372,2188
78.8059,2248
78.8745,2204
78.9432,2243
79.0118,2349
79.0805,2243
79.1491,2205
79.2178,2186
79.2864,2131
79.3551,2148
79.4238,2123
79.4924,2181
79.5611,2214
79.6297,2248
79.6984,2152
79.767,2142
79.8357,2192
79.9044,2166
79.973,2293
80.0417,2108
80.1103,2164
80.179,2142
80.2476,2116
80.3163,2205
80.385,2173
80.4536,2149
80.5223,2173
80.5909,2161
80.6596,2118
80.7282,2121
80.7969,2087
80.8656,2184
80.9342,2079
81.0029,2071
81.0715,1989
81.1402,2115
81.2088,2028
81.2775,2038
81.3462,2024
81.4148,2170
81.4835,2061
81.5521,2035
81.6208,2035
81.6894,2130
81.7581,2026
81.8268,2064
81.8954,2119
81.9641,2057
82.0327,2142
82.1014,2177
82.17,2038
82.2387,2003
82.3074,2087
82.376,2122
82.4447,2119
82.5133,2107
82.582,2106
82.6506,2037
82.7193,2195
82.788,2131
82.8566,2080
82.9253,2070
82.9939,2039
83.0626,1962
83.1312,2035
83.1999,2014
83.2686,2018
83.3372,2130
83.4059,2033
83.4745,2042
83.5432,1980
83.6118,2082
83.6805,2065
83.7492,1948
83.8178,2006
83.8865,1996
83.9551,1932
84.0238,1942
84.0924,1961
84.1611,1978
84.2298,1966
84.2984,1967
84.3671,1978
84.4357,1952
84.5044,2035
84.573,1945
84.6417,2035
84.7104,2006
84.779,1893
84.8477,2052
84.9163,2084
84.985,1894
85.0536,2007
85.1223,1994
85.1909,1939
85.2596,1964
85.3283,1981
85.3969,1993
85.4656,1915
85.5342,1922
85.6029,1976
85.6715,1965
85.7402,1853
85.8089,1922
85.8775,1978
85.9462,1964
86.0148,2014
86.0835,1908
86.1521,1939
86.2208,2002
86.2895,1963
86.3581,1946
86.4268,1916
86.4954,1972
86.5641,1889
86.6327,1865
86.7014,1866
86.7701,1897
86.8387,1860
86.9074,1902
86.976,1967
87.0447,1791
87.1133,1885
87.182,1876
87.2507,1950
87.3193,1835
87.388,1961
87.4566,1948
87.5253,1822
87.5939,1888
87.6626,1889
87.7313,1879
87.7999,1882
87.8686,1951
87.9372,1912
88.0059,1918
88.0745,1961
88.1432,1931
88.2119,1853
88.2805,1914
88.3492,1781
88.4178,1877
88.4865,1828
88.5551,1807
88.6238,1860
88.6925,1790
88.7611,1782
88.8298,1899
88.8984,1822
88.9671,1881
89.0357,1798
89.1044,1900
89.1731,1752
89.2417,1808
89.3104,1731
89.379,1773
89.4477,1883
89.5163,1812
89.585,1856
89.6537,1727
89.7223,1857
89.791,1817
89.8596,1776
89.9283,1855
89.9969,1710
90.0656,1764
90.1343,1725
90.2029,1776
90.2716,1717
90.3402,1790
90.4089,1700
90.4775,1770
90.5462,1759
90.6148,1801
90.6835,1762
90.7522,1790
90.8208,1736
90.8895,1750
90.9581,1658
91.0268,1721
91.0954,1806
91.1641,1736
91.2328,1752
91.3014,1637
91.3701,1696
91.4387,1668
91.5074,1647
91.576,1663
91.6447,1706
91.7134,1718
91.782,1817
91.8507,1660
91.9193,1637
91.988,1680
92.0566,1656
92.1253,1653
92.194,1730
92.2626,1671
92.3313,1672
92.3999,1709
92.4686,1671
92.5372,1681
92.6059,1569
92.6746,1700
92.7432,1631
92.8119,1740
92.8805,1678
92.9492,1679
93.0178,1755
93.0865,1624
93.1552,1704
93.2238,1722
93.2925,1645
93.3611,1690
93.4298,1682
93.4984,1627
93.5671,1634
93.6358,1641
93.7044,1664
93.7731,1621
93.8417,1621
93.9104,1693
93.979,1589
94.0477,1595
94.1164,1681
94.185,1696
94.2537,1571
94.3223,1595
94.391,1521
94.4596,1585
94.5283,1599
94.597,1640
94.6656,1551
94.7343,1585
94.8029,1595
94.8716,1593
94.9402,1605
95.0089,1576
95.0776,1599
95.1462,1585
95.2149,1574
95.2835,1613
95.3522,1555
95.4208,1477
95.4895,1661
95.5582,1561
95.6268,1636
95.6955,1565
95.7641,1551
95.8328,1560
95.9014,1648
95.9701,1585
96.0388,1590
96.1074,1555
96.1761,1561
96.2447,1569
96.3134,1558
96.382,1543
96.4507,1564
96.5193,1544
96.588,1579
96.6567,1549
96.7253,1518
96.794,1594
96.8626,1575
96.9313,1499
96.9999,1557
97.0686,1587
97.1373,1554
97.2059,1550
97.2746,1584
97.3432,1535
97.4119,1570
97.4805,1565
97.5492,1579
97.6179,1578
97.6865,1480
97.7552,1513
97.8238,1467
97.8925,1524
97.9611,1494
98.0298,1588
98.0985,1524
98.1671,1577
98.2358,1490
98.3044,1538
98.3731,1579
98.4417,1560
98.5104,1525
98.5791,1526
98.6477,1445
98.7164,1500
98.785,1553
98.8537,1521
98.9223,1454
98.991,1489
99.0597,1487
99.1283,1520
99.197,1497
99.2656,1516
99.3343,1495
99.4029,1501
99.4716,1652
99.5403,1506
99.6089,1529
99.6776,1584
99.7462,1522
99.8149,1549
99.8835,1493
99.9522,1405
99.9934,14