File: PhD Work/Raman Plotter_050524/Plot Data/UG Glasses/SLS/JC_UG_SLS3_5th_cut_bas_ther_vect_050624.csv
RamanShift,SLS3
49.85,-3.41493E-05
51.78,-8.57725E-06
53.71,5.29824E-06
55.64,7.23237E-05
57.56,0.000158825
59.49,0.000225348
61.42,0.0002297
63.35,0.000188765
65.28,0.000159621
67.21,0.000182334
69.13,0.000242959
71.06,0.000313076
72.99,0.000363155
74.92,0.000375826
76.85,0.000353902
78.78,0.000346916
80.71,0.000368774
82.63,0.000410186
84.56,0.000401769
86.49,0.000374159
88.42,0.000386774
90.35,0.000458165
92.28,0.000513372
94.2,0.000515003
96.13,0.00047056
98.06,0.000426561
99.99,0.00039748
101.92,0.000412066
103.85,0.000472429
105.78,0.000533947
107.7,0.00054193
109.63,0.000495518
111.56,0.000421206
113.49,0.000429785
115.42,0.000453753
117.35,0.00046254
119.27,0.000462912
121.2,0.000460039
123.13,0.000482103
125.06,0.000482368
126.99,0.000441837
128.92,0.000412997
130.85,0.000395091
132.77,0.000376816
134.7,0.000379295
136.63,0.000403896
138.56,0.000412053
140.49,0.000398803
142.42,0.000364283
144.34,0.00030532
146.27,0.000251076
148.2,0.000253267
150.13,0.000268116
152.06,0.000293271
153.99,0.00029752
155.92,0.000273355
157.84,0.000235436
159.77,0.000201843
161.7,0.000187111
163.63,0.00017164
165.56,0.000145266
167.49,0.000146614
169.41,0.000167752
171.34,0.000168416
173.27,0.000136112
175.2,0.000108929
177.13,9.58299E-05
179.06,7.90325E-05
180.99,7.72956E-05
182.91,8.74578E-05
184.84,7.68424E-05
186.77,6.8448E-05
188.7,6.73821E-05
190.63,5.0288E-05
192.56,2.74464E-05
194.48,4.28567E-05
196.41,2.44065E-05
198.34,-5.70583E-08
200.27,2.23707E-05
202.2,3.82187E-05
204.13,6.41272E-05
206.06,8.55138E-05
207.98,9.13838E-05
209.91,8.37228E-05
211.84,0.000108154
213.77,0.000132335
215.7,0.000148617
217.63,0.000169181
219.55,0.000191266
221.48,0.000204476
223.41,0.000210943
225.34,0.000206292
227.27,0.000218518
229.2,0.000249364
231.13,0.000289473
233.05,0.00034403
234.98,0.00035793
236.91,0.000336722
238.84,0.000342291
240.77,0.000389857
242.7,0.000459196
244.62,0.000530155
246.55,0.000570983
248.48,0.000615652
250.41,0.000646193
252.34,0.000690733
254.27,0.000759641
256.2,0.000840628
258.12,0.000855043
260.05,0.000889436
261.98,0.000996214
263.91,0.001054205
265.84,0.001076241
267.77,0.001112579
269.69,0.00116704
271.62,0.001227288
273.55,0.001329386
275.48,0.001410383
277.41,0.001419406
279.34,0.001429046
281.27,0.001580701
283.19,0.001742488
285.12,0.001819759
287.05,0.001907957
288.98,0.0020322
290.91,0.002147217
292.84,0.002235814
294.76,0.00231873
296.69,0.00249293
298.62,0.002648817
300.55,0.00278021
302.48,0.002904027
304.41,0.00300538
306.34,0.003077826
308.26,0.003230554
310.19,0.003415036
312.12,0.003567011
314.05,0.003699965
315.98,0.003870056
317.91,0.004014067
319.83,0.004115323
321.76,0.004206497
323.69,0.004347685
325.62,0.004497059
327.55,0.004656608
329.48,0.004789971
331.41,0.004957277
333.33,0.005164759
335.26,0.005335911
337.19,0.005477133
339.12,0.005664864
341.05,0.005916582
342.98,0.00613103
344.91,0.006266163
346.83,0.006421248
348.76,0.006653836
350.69,0.006896412
352.62,0.00709365
354.55,0.00727286
356.48,0.007519738
358.4,0.007758021
360.33,0.00797236
362.26,0.008101016
364.19,0.008229722
366.12,0.008428803
368.05,0.008639703
369.98,0.008817206
371.9,0.009005977
373.83,0.009183791
375.76,0.009365545
377.69,0.009544606
379.62,0.009763527
381.55,0.009962094
383.47,0.01009052
385.4,0.0102649
387.33,0.0105898
389.26,0.0108475
391.19,0.0109695
393.12,0.01116784
395.05,0.0114641
396.97,0.011732
398.9,0.0119404
400.83,0.0120924
402.76,0.0122894
404.69,0.012547
406.62,0.01278
408.54,0.0131291
410.47,0.0134145
412.4,0.0135815
414.33,0.01382322
416.26,0.01403891
418.19,0.0142744
420.12,0.0146271
422.04,0.01488901
423.97,0.0151076
425.9,0.0153082
427.83,0.0155805
429.76,0.0158952
431.69,0.0160997
433.61,0.016335
435.54,0.016676
437.47,0.0169994
439.4,0.0171646
441.33,0.0173611
443.26,0.0176018
445.19,0.0179315
447.11,0.0182774
449.04,0.0186211
450.97,0.0188749
452.9,0.01914201
454.83,0.0194183
456.76,0.0195601
458.68,0.01963006
460.61,0.0198413
462.54,0.0201307
464.47,0.0204073
466.4,0.020632
468.33,0.0207514
470.26,0.0207727
472.18,0.0208532
474.11,0.0209921
476.04,0.0211206
477.97,0.0212618
479.9,0.0213567
481.83,0.02153275
483.75,0.0216948
485.68,0.0217223
487.61,0.0216917
489.54,0.0215847
491.47,0.021445
493.4,0.0213913
495.33,0.0214642
497.25,0.0215134
499.18,0.0214463
501.11,0.0214548
503.04,0.0215832
504.97,0.02162878
506.9,0.0216887
508.82,0.02182
510.75,0.0219878
512.68,0.0221153
514.61,0.0222995
516.54,0.0224555
518.47,0.0226325
520.4,0.0227706
522.32,0.0229103
524.25,0.0231486
526.18,0.0234271
528.11,0.0236209
530.04,0.0239609
531.97,0.0245493
533.89,0.025038
535.82,0.0253419
537.75,0.0255969
539.68,0.0258224
541.61,0.02605093
543.54,0.02639425
545.47,0.0267122
547.39,0.0269611
549.32,0.027022
551.25,0.0268061
553.18,0.0266002
555.11,0.0266857
557.04,0.0267405
558.96,0.0266003
560.89,0.0263971
562.82,0.0259435
564.75,0.0254174
566.68,0.025087
568.61,0.0248096
570.54,0.0244483
572.46,0.0240964
574.39,0.0236564
576.32,0.0231837
578.25,0.022736
580.18,0.022192
582.11,0.0217568
584.03,0.0214657
585.96,0.0210384
587.89,0.0204685
589.82,0.019981
591.75,0.0196629
593.68,0.019185
595.61,0.0186943
597.53,0.018186
599.46,0.0176567
601.39,0.0170429
603.32,0.0164508
605.25,0.0159378
607.18,0.01556
609.1,0.0149421
611.03,0.0143469
612.96,0.013873
614.89,0.0133562
616.82,0.0128845
618.75,0.0125152
620.68,0.0121579
622.6,0.0116527
624.53,0.0111214
626.46,0.0107291
628.39,0.0104598
630.32,0.0101036
632.25,0.00978456
634.18,0.009637708
636.1,0.009388071
638.03,0.009041607
639.96,0.00881931
641.89,0.008627004
643.82,0.008391939
645.75,0.008067753
647.67,0.007842175
649.6,0.007769783
651.53,0.007529648
653.46,0.007220041
655.39,0.006943083
657.32,0.00683061
659.25,0.006632388
661.17,0.006404166
663.1,0.006179015
665.03,0.005999791
666.96,0.005764224
668.89,0.00557006
670.82,0.0053094
672.74,0.005066076
674.67,0.004833171
676.6,0.004566927
678.53,0.004350053
680.46,0.004087488
682.39,0.003845201
684.32,0.003702469
686.24,0.00354881
688.17,0.003229892
690.1,0.00303613
692.03,0.002906174
693.96,0.002642077
695.89,0.002366089
697.81,0.002164178
699.74,0.001943171
701.67,0.00167479
703.6,0.001473735
705.53,0.001351004
707.46,0.001230103
709.39,0.001155027
711.31,0.00114182
713.24,0.000943764
715.17,0.000809792
717.1,0.000654053
719.03,0.000568412
720.96,0.000579992
722.88,0.000525565
724.81,0.000439017
726.74,0.000394692
728.67,0.000382316
730.6,0.000273358
732.53,0.000225769
734.46,0.000269891
736.38,0.000273778
738.31,0.000299611
740.24,0.000429481
742.17,0.00052202
744.1,0.00067301
746.03,0.000803088
747.95,0.000837355
749.88,0.000810983
751.81,0.000968278
753.74,0.001146287
755.67,0.00136761
757.6,0.001525869
759.53,0.001651454
761.45,0.001925011
763.38,0.002180632
765.31,0.002369704
767.24,0.002602942
769.17,0.002794822
771.1,0.002985152
773.02,0.00324019
774.95,0.003520132
776.88,0.003683018
778.81,0.003733554
780.74,0.003825378
782.67,0.004020388
784.6,0.004134452
786.52,0.004096097
788.45,0.004161105
790.38,0.004268118
792.31,0.004331326
794.24,0.004377132
796.17,0.004327624
798.09,0.004127793
800.02,0.003978118
801.95,0.003963494
803.88,0.003936816
805.81,0.003831158
807.74,0.003624456
809.67,0.00343802
811.59,0.003189252
813.52,0.002850081
815.45,0.002478217
817.38,0.002227977
819.31,0.002078758
821.24,0.001931933
823.16,0.001640849
825.09,0.001323271
827.02,0.000934982
828.95,0.000620134
830.88,0.000429893
832.81,0.00024191
834.74,0.000211773
836.66,5.10784E-05
838.59,4.61836E-05
840.52,0.000137544
842.45,0.000149358
844.38,0.000200102
846.31,0.000338554
848.23,0.00051357
850.16,0.000771066
852.09,0.001228947
854.02,0.001382539
855.95,0.001743587
857.88,0.002313848
859.81,0.002867737
861.73,0.003272807
863.66,0.00384277
865.59,0.004535697
867.52,0.005225983
869.45,0.005826709
871.38,0.006672142
873.3,0.007491949
875.23,0.008299732
877.16,0.009291105
879.09,0.0103998
881.02,0.0113755
882.95,0.0124178
884.88,0.0134762
886.8,0.0147181
888.73,0.0160461
890.66,0.0172574
892.59,0.0186202
894.52,0.0201358
896.45,0.0216734
898.37,0.0232188
900.3,0.0247973
902.23,0.0264122
904.16,0.0278776
906.09,0.0293648
908.02,0.03100443
909.95,0.0326774
911.87,0.0343336
913.8,0.036013
915.73,0.0377512
917.66,0.0394018
919.59,0.0409637
921.52,0.04242923
923.45,0.0440396
925.37,0.0458484
927.3,0.0477287
929.23,0.0493386
931.16,0.0507233
933.09,0.052115
935.02,0.0535063
936.94,0.0549179
938.87,0.0563187
940.8,0.057675
942.73,0.0589635
944.66,0.0601246
946.59,0.0611682
948.52,0.0622207
950.44,0.063191
952.37,0.0639304
954.3,0.0648009
956.23,0.0655508
958.16,0.0659188
960.09,0.0664246
962.01,0.0671168
963.94,0.0673912
965.87,0.067521
967.8,0.0675593
969.73,0.0675818
971.66,0.0677535
973.59,0.0678829
975.51,0.067753
977.44,0.0676265
979.37,0.0675375
981.3,0.0669494
983.23,0.06657638
985.16,0.0662516
987.08,0.0658528
989.01,0.0653901
990.94,0.0648335
992.87,0.0644041
994.8,0.0639162
996.73,0.0635049
998.66,0.0627966
1000.58,0.0621672
1002.51,0.0616552
1004.44,0.0612357
1006.37,0.0607337
1008.3,0.0602086
1010.23,0.0596233
1012.15,0.0591395
1014.08,0.0586535
1016.01,0.05843319
1017.94,0.0582923
1019.87,0.0578357
1021.8,0.0575487
1023.73,0.0575922
1025.65,0.0574326
1027.58,0.0572645
1029.51,0.0573761
1031.44,0.0571895
1033.37,0.05717953
1035.3,0.0574399
1037.23,0.0578265
1039.15,0.058125
1041.08,0.0583166
1043.01,0.0585841
1044.94,0.0586548
1046.87,0.0591597
1048.8,0.0596071
1050.72,0.0598644
1052.65,0.0604717
1054.58,0.06097052
1056.51,0.0616376
1058.44,0.0622815
1060.37,0.062782
1062.3,0.0631682
1064.22,0.0637008
1066.15,0.0645994
1068.08,0.0653371
1070.01,0.0658952
1071.94,0.0665289
1073.87,0.0669561
1075.79,0.0671998
1077.72,0.067533
1079.65,0.0679192
1081.58,0.0682275
1083.51,0.0686027
1085.44,0.069032
1087.37,0.0689489
1089.29,0.0686594
1091.22,0.068476
1093.15,0.0680901
1095.08,0.0674968
1097.01,0.0666176
1098.94,0.0658776
1100.86,0.0651999
1102.79,0.0641366
1104.72,0.0626835
1106.65,0.0613275
1108.58,0.0600693
1110.51,0.058705
1112.44,0.0571062
1114.36,0.0553205
1116.29,0.0540171
1118.22,0.052602
1120.15,0.0512032
1122.08,0.0495852
1124.01,0.04802495
1125.93,0.04653
1127.86,0.0449504
1129.79,0.043233
1131.72,0.0419177
1133.65,0.0406522
1135.58,0.0392357
1137.51,0.0379017
1139.43,0.0364621
1141.36,0.0352897
1143.29,0.0339749
1145.22,0.0328527
1147.15,0.0319766
1149.08,0.0306733
1151,0.0295731
1152.93,0.0285828
1154.86,0.0275927
1156.79,0.0265643
1158.72,0.0255408
1160.65,0.0244404
1162.58,0.0234024
1164.5,0.0226347
1166.43,0.0216847
1168.36,0.02071075
1170.29,0.0199026
1172.22,0.01898347
1174.15,0.0183093
1176.07,0.0175727
1178,0.0168381
1179.93,0.0162032
1181.86,0.0153337
1183.79,0.0146529
1185.72,0.0137214
1187.65,0.0130782
1189.57,0.0124417
1191.5,0.0116481
1193.43,0.0110705
1195.36,0.0103
1197.29,0.00991188
1199.22,0.009200492
1201.14,0.008435332
1203.07,0.007903807
1205,0.007496053
1206.93,0.006863587
1208.86,0.006365153
1210.79,0.005965966
1212.72,0.005549556
1214.64,0.005059521
1216.57,0.004618456
1218.5,0.004093277
1220.43,0.00371968
1222.36,0.003323656
1224.29,0.003018503
1226.21,0.002902797
1228.14,0.002444771
1230.07,0.002326929
1232,0.002119917
1233.93,0.001771104
1235.86,0.001514494
1237.79,0.001413404
1239.71,0.001143756
1241.64,0.001072343
1243.57,0.000926642
1245.5,0.000737829
1247.43,0.000643005
1249.36,0.000632138
1251.28,0.000573036
1253.21,0.000630369
1255.14,0.000597038
1257.07,0.000413815
1259,0.000282953
1260.93,0.00032798
1262.86,0.000362077
1264.78,0.000320543
1266.71,0.000364777
1268.64,0.000322404
1270.57,0.000306524
1272.5,0.000387765
1274.43,0.000284246
1276.35,0.000125412
1278.28,5.83281E-05
1280.21,8.89203E-05
1282.14,0.000256085
1284.07,0.000319265
1286,0.000112953
1287.93,0.000197272
1289.85,6.6235E-05
1291.78,0.000105698
1293.71,0.000250123
1295.64,0.000272575
1297.57,0.000189023
1299.5,0.00028858
1301.42,0.000276393
1303.35,0.000196664
1305.28,0.000177847
1307.21,0.000265218
1309.14,0.00026812
1311.07,0.000287523
1313,0.000357413
1314.92,0.000511996
1316.85,0.000468374
1318.78,0.000282168
1320.71,0.000197277
1322.64,0.000396758
1324.57,0.000425212
1326.5,0.000556403
1328.42,0.000704871
1330.35,0.000629454
1332.28,0.000403681
1334.21,0.000390055
1336.14,0.000422216
1338.07,0.000552537
1339.99,0.000543737
1341.92,0.000598465
1343.85,0.000746177
1345.78,0.000806566
1347.71,0.000568731
1349.64,0.000587271
1351.57,0.000558575
1353.49,0.00062932
1355.42,0.000682307
1357.35,0.000575827
1359.28,0.000657736
1361.21,0.000745513
1363.14,0.00066714
1365.06,0.000772392
1366.99,0.000877677
1368.92,0.000726452
1370.85,0.000508563
1372.78,0.000517085
1374.71,0.000651292
1376.64,0.000665438
1378.56,0.00072148
1380.49,0.000819609
1382.42,0.0007727
1384.35,0.00097357
1386.28,0.000744117
1388.21,0.000890317
1390.13,0.000933253
1392.06,0.000890599
1393.99,0.001024701
1395.92,0.001103879
1397.85,0.000894737
1399.78,0.000948761
1401.71,0.000873389
1403.63,0.000772811
1405.56,0.000733319
1407.49,0.000742905
1409.42,0.000876263
1411.35,0.000842068
1413.28,0.001068883
1415.2,0.001003212
1417.13,0.00084326
1419.06,0.000851425
1420.99,0.000928305
1422.92,0.001036593
1424.85,0.001138712
1426.78,0.000963562
1428.7,0.001040177
1430.63,0.001110424
1432.56,0.000756025
1434.49,0.000336599
1436.42,0.000761376
1438.35,0.001021757
1440.27,0.000944574
1442.2,0.000841212
1444.13,0.000929436
1446.06,0.001088324
1447.99,0.001035383
1449.92,0.001039983
1451.85,0.00096694
1453.77,0.000828851
1455.7,0.000910128
1457.63,0.001062831
1459.56,0.000962417
1461.49,0.001180415
1463.42,0.000825098
1465.34,0.00082117
1467.27,0.000777676
1469.2,0.000805938
1471.13,0.000945754
1473.06,0.000849012
1474.99,0.000909918
1476.92,0.000977453
1478.84,0.000939309
1480.77,0.000847751
1482.7,0.000868521
1484.63,0.000955676
1486.56,0.000929731
1488.49,0.000863496
1490.41,0.001171258
1492.34,0.001064711
1494.27,0.000991168
1496.2,0.001098612
1498.13,0.001132248
1500.06,0.001004033
1501.99,0.000963026
1503.91,0.00097597
1505.84,0.001056479
1507.77,0.001198238
1509.7,0.001163528
1511.63,0.000992307
1513.56,0.000895443
1515.48,0.000682015
1517.41,0.001015462
1519.34,0.001137296
1521.27,0.000991432
1523.2,0.000996394
1525.13,0.001097809
1527.06,0.000999153
1528.98,0.001017805
1530.91,0.000710557
1532.84,0.000728472
1534.77,0.000850681
1536.7,0.000799058
1538.63,0.000733228
1540.55,0.000862949
1542.48,0.000845865
1544.41,0.0007024
1546.34,0.000670802
1548.27,0.000822019
1550.2,0.001121753
1552.13,0.001634304
1554.05,0.002523574
1555.98,0.003415688
1557.91,0.002784725
1559.84,0.001341038
1561.77,0.000497797
1563.7,0.000322264
1565.62,0.000432087
1567.55,0.000492016
1569.48,0.000236646
1571.41,0.000361053
1573.34,0.00050745
1575.27,0.000113861
1577.2,0.000108739
1579.12,0.000306192
1581.05,0.000279654
1582.98,0.000325583
1584.91,0.000342609
1586.84,0.000323316
1588.77,7.06627E-05
1590.69,6.56412E-05
1592.62,0.000184852
1594.55,0.000113978
1596.48,-7.4531E-05
1598.41,1.57469E-05
1599.37,-0.000130222