File: PhD Work/Raman Plotter_050524/Plot Data/UG Glasses/SLS/JC_UG_SLS1_5th_cut_bas_ther_vect_050624.csv
RamanShift,SLS1
49.8496,-9.4362E-05
51.7781,-7.50601E-05
53.7065,-5.98991E-05
55.635,-1.96371E-05
57.5635,2.55845E-05
59.4919,5.56359E-05
61.4204,6.09096E-05
63.3489,4.56109E-05
65.2773,3.86529E-05
67.2058,5.87543E-05
69.1343,9.35492E-05
71.0627,0.000133125
72.9912,0.000159046
74.9197,0.000162166
76.8481,0.000160535
78.7766,0.000163853
80.7051,0.000176867
82.6335,0.000198459
84.562,0.000197041
86.4905,0.000186835
88.4189,0.000201604
90.3474,0.000242654
92.2759,0.000272494
94.2044,0.000272921
96.1328,0.000251669
98.0613,0.000235048
99.9898,0.000226849
101.918,0.000236033
103.847,0.00026602
105.775,0.000295951
107.704,0.000299776
109.632,0.000279322
111.561,0.000251277
113.489,0.000258809
115.418,0.000273059
117.346,0.000274782
119.274,0.000268306
121.203,0.000267026
123.131,0.000293248
125.06,0.000301666
126.988,0.000273532
128.917,0.000256591
130.845,0.00025086
132.774,0.00024396
134.702,0.000251474
136.631,0.000261699
138.559,0.000257675
140.488,0.000246818
142.416,0.000232364
144.345,0.000203805
146.273,0.000167935
148.201,0.000164433
150.13,0.00018381
152.058,0.000203096
153.987,0.000202854
155.915,0.000185429
157.844,0.000166025
159.772,0.000146503
161.701,0.000139356
163.629,0.000129792
165.558,0.000106744
167.486,0.000104478
169.415,0.000117716
171.343,0.000110909
173.272,8.71014E-05
175.2,7.27916E-05
177.128,6.72388E-05
179.057,5.03322E-05
180.985,5.32073E-05
182.914,6.19087E-05
184.842,4.36002E-05
186.771,2.70169E-05
188.699,3.49839E-05
190.628,3.08081E-05
192.556,1.47978E-05
194.485,2.40369E-05
196.413,1.79226E-05
198.341,6.11436E-07
200.27,2.31494E-05
202.198,4.98817E-05
204.127,6.93147E-05
206.055,8.77936E-05
207.984,0.000104544
209.912,0.000110959
211.841,0.000132868
213.769,0.000150528
215.698,0.000166601
217.626,0.000199545
219.555,0.000216718
221.483,0.000230223
223.412,0.000254206
225.34,0.000267582
227.268,0.00028143
229.197,0.000319283
231.125,0.000377006
233.054,0.000431046
234.982,0.000455435
236.911,0.000462198
238.839,0.000495365
240.768,0.000542613
242.696,0.000606596
244.625,0.000682176
246.553,0.000739811
248.482,0.000783578
250.41,0.000811152
252.339,0.000862082
254.267,0.000941157
256.196,0.001014094
258.124,0.0010541
260.053,0.001109718
261.981,0.001212575
263.909,0.001293451
265.838,0.001326984
267.766,0.00137491
269.695,0.001450041
271.623,0.001535301
273.552,0.001646155
275.48,0.001733141
277.409,0.001764691
279.337,0.001818411
281.266,0.001970191
283.194,0.002125642
285.123,0.002215965
287.051,0.002312309
288.979,0.002445711
290.908,0.00256232
292.836,0.002657846
294.765,0.002777508
296.693,0.00294061
298.622,0.003084249
300.55,0.003227183
302.479,0.00335979
304.407,0.003473955
306.336,0.003553787
308.264,0.003704648
310.193,0.003884762
312.121,0.004063086
314.05,0.004215799
315.978,0.004384933
317.906,0.004528409
319.835,0.004623954
321.763,0.004720095
323.692,0.004877205
325.62,0.005042222
327.549,0.00518088
329.477,0.005296637
331.406,0.005452289
333.334,0.005640344
335.263,0.005797924
337.191,0.005945802
339.12,0.006141571
341.048,0.006365251
342.976,0.006549076
344.905,0.006661464
346.834,0.006809252
348.762,0.007038094
350.69,0.007240596
352.619,0.007432553
354.547,0.007613656
356.476,0.007823916
358.404,0.008037292
360.333,0.008237669
362.261,0.008363138
364.19,0.00848612
366.118,0.008661651
368.047,0.008841922
369.975,0.008995156
371.904,0.009170625
373.832,0.009334158
375.76,0.009513624
377.689,0.009669668
379.617,0.00984682
381.546,0.0100149
383.474,0.0101584
385.403,0.0103033
387.331,0.0105711
389.26,0.0108307
391.188,0.0109808
393.117,0.01115009
395.045,0.0113797
396.974,0.01159846
398.902,0.0117914
400.83,0.0119224
402.759,0.0120946
404.688,0.0123354
406.616,0.0125604
408.544,0.0128845
410.473,0.0131232
412.401,0.0132252
414.33,0.0134135
416.258,0.0136399
418.187,0.0138493
420.115,0.0141445
422.044,0.0144128
423.972,0.0145589
425.901,0.0147321
427.829,0.0150216
429.757,0.01527909
431.686,0.015487
433.615,0.01572418
435.543,0.0160294
437.471,0.0162945
439.4,0.01649041
441.328,0.0166793
443.257,0.0168709
445.185,0.0171447
447.114,0.0174478
449.042,0.0177373
450.971,0.0179368
452.899,0.018155
454.828,0.0183795
456.756,0.01847721
458.685,0.0185086
460.613,0.0186815
462.541,0.0189364
464.47,0.0191379
466.398,0.019315
468.327,0.0194062
470.255,0.0193841
472.184,0.0194298
474.112,0.0195667
476.041,0.019667
477.969,0.0197517
479.898,0.0198534
481.826,0.020017
483.755,0.0201695
485.683,0.0202052
487.611,0.0201846
489.54,0.0201576
491.469,0.0200853
493.397,0.020057
495.325,0.0201406
497.254,0.020224
499.182,0.0202332
501.111,0.02031869
503.039,0.0205026
504.968,0.0206535
506.896,0.0207872
508.825,0.0209942
510.753,0.0212559
512.682,0.0214809
514.61,0.0217762
516.539,0.0220944
518.467,0.0224734
520.395,0.0228289
522.324,0.0231511
524.252,0.0236146
526.181,0.0241646
528.109,0.0246632
530.038,0.0253553
531.966,0.0262804
533.895,0.0271226
535.823,0.0277898
537.752,0.02838429
539.68,0.0289982
541.609,0.0296125
543.537,0.030392
545.466,0.0311688
547.394,0.0317358
549.322,0.0320688
551.251,0.0321764
553.179,0.032345
555.108,0.0327017
557.036,0.03303104
558.965,0.0330887
560.893,0.0330805
562.822,0.0328389
564.75,0.0324158
566.679,0.0321624
568.607,0.0319549
570.536,0.0316541
572.464,0.0313388
574.393,0.0309752
576.321,0.0306086
578.25,0.0302314
580.178,0.0296594
582.106,0.0292687
584.035,0.0290642
585.963,0.0287202
587.892,0.0282248
589.82,0.02780475
591.749,0.0275577
593.677,0.02709523
595.606,0.0266596
597.534,0.0262971
599.463,0.0257599
601.391,0.0251247
603.319,0.0245428
605.248,0.0240347
607.177,0.0235761
609.105,0.0228979
611.033,0.0222258
612.962,0.0216939
614.89,0.0211608
616.819,0.0206769
618.747,0.0202017
620.676,0.0197588
622.604,0.0192358
624.533,0.0186554
626.461,0.0181856
628.39,0.0178915
630.318,0.0174865
632.246,0.0170511
634.175,0.0168458
636.104,0.0165244
638.032,0.0161039
639.96,0.0158442
641.889,0.0155935
643.817,0.0152377
645.746,0.0147961
647.674,0.0144712
649.603,0.0142922
651.531,0.0139404
653.46,0.0135162
655.388,0.0130796
657.317,0.0128107
659.245,0.0125164
661.173,0.0121993
663.102,0.0118017
665.03,0.0114657
666.959,0.0111167
668.887,0.0107258
670.816,0.0103556
672.744,0.009997245
674.673,0.009601766
676.601,0.009166699
678.53,0.008816624
680.458,0.008451307
682.387,0.008054853
684.315,0.007703368
686.244,0.007362718
688.172,0.006972364
690.101,0.006668511
692.029,0.006369317
693.957,0.005938983
695.886,0.00558295
697.814,0.005290347
699.743,0.004959257
701.671,0.00456424
703.6,0.004236405
705.528,0.004033645
707.457,0.003831019
709.385,0.003622915
711.314,0.003450798
713.242,0.003183132
715.171,0.002997414
717.099,0.002786384
719.028,0.002621047
720.956,0.00254043
722.885,0.002429969
724.813,0.002349054
726.741,0.00226773
728.67,0.002188734
730.598,0.002107171
732.527,0.002044366
734.455,0.002061717
736.384,0.002047989
738.312,0.002053456
740.241,0.002141789
742.169,0.00226947
744.098,0.002433968
746.026,0.002585012
747.955,0.002708211
749.883,0.002818014
751.812,0.002958254
753.74,0.003152428
755.668,0.003435436
757.597,0.003637025
759.525,0.003877361
761.454,0.004147426
763.382,0.004452657
765.311,0.00476036
767.239,0.005055371
769.168,0.005272005
771.096,0.005497585
773.025,0.005767894
774.953,0.006082775
776.881,0.006341134
778.81,0.006451357
780.739,0.006545022
782.667,0.006713417
784.595,0.006780564
786.524,0.00675286
788.452,0.006844083
790.381,0.006952615
792.309,0.006958821
794.238,0.006916049
796.166,0.006800261
798.095,0.006646347
800.023,0.006454287
801.952,0.006333418
803.88,0.006216883
805.808,0.006057378
807.737,0.005799609
809.665,0.005570591
811.594,0.005246689
813.522,0.004816527
815.451,0.00441492
817.379,0.004114005
819.308,0.003825057
821.236,0.0035328
823.165,0.003156431
825.093,0.002736583
827.022,0.002221257
828.95,0.001785436
830.879,0.001488997
832.807,0.001180444
834.736,0.000996718
836.664,0.00068157
838.592,0.000503286
840.521,0.000407932
842.449,0.000224328
844.378,5.77711E-05
846.306,2.40456E-05
848.235,1.05455E-05
850.163,2.90241E-05
852.092,0.000207597
854.02,0.000228679
855.949,0.000338537
857.877,0.000556567
859.806,0.000802019
861.734,0.000984963
863.663,0.001247152
865.591,0.001560865
867.519,0.001891814
869.448,0.002146761
871.376,0.002557361
873.305,0.002949661
875.233,0.003399599
877.162,0.003894421
879.09,0.004371891
881.019,0.00479431
882.947,0.005307161
884.876,0.005801593
886.804,0.006365858
888.733,0.006989231
890.661,0.007582229
892.59,0.00829028
894.518,0.009025653
896.447,0.009809434
898.375,0.0106644
900.303,0.0115178
902.232,0.0123139
904.16,0.0131026
906.089,0.0138652
908.017,0.0147487
909.946,0.0157574
911.874,0.0167296
913.803,0.0177601
915.731,0.0188683
917.66,0.0199528
919.588,0.0210216
921.516,0.02203181
923.445,0.0230753
925.374,0.0243386
927.302,0.0257191
929.23,0.0268749
931.159,0.0278788
933.087,0.0289807
935.016,0.0300259
936.944,0.0310679
938.873,0.0321149
940.801,0.0330517
942.73,0.0340545
944.658,0.03489206
946.587,0.0355925
948.515,0.03630384
950.443,0.0369012
952.372,0.0373872
954.301,0.0379426
956.229,0.0383606
958.157,0.0385301
960.086,0.0388878
962.014,0.0392503
963.943,0.0393722
965.871,0.0394373
967.8,0.0394642
969.728,0.0395055
971.657,0.0397675
973.585,0.0399664
975.514,0.0401051
977.442,0.0403243
979.37,0.0405649
981.299,0.0405618
983.227,0.0406228
985.156,0.0407982
987.084,0.0410499
989.013,0.04132238
990.941,0.0415098
992.87,0.0418212
994.798,0.0421249
996.727,0.0424865
998.655,0.0425917
1000.58,0.0428153
1002.51,0.0432732
1004.44,0.043621
1006.37,0.04396721
1008.3,0.0443677
1010.23,0.0446797
1012.15,0.0451907
1014.08,0.0457052
1016.01,0.0463349
1017.94,0.047
1019.87,0.0474522
1021.8,0.0481237
1023.73,0.04900427
1025.65,0.0497283
1027.58,0.0503697
1029.51,0.0512451
1031.44,0.0519756
1033.37,0.0527259
1035.3,0.0537258
1037.22,0.0548443
1039.15,0.0558817
1041.08,0.05680995
1043.01,0.0577883
1044.94,0.0587329
1046.87,0.0599512
1048.8,0.0611178
1050.72,0.0622718
1052.65,0.0636563
1054.58,0.0651011
1056.51,0.0666113
1058.44,0.068032
1060.37,0.0694073
1062.3,0.0708082
1064.22,0.0722944
1066.15,0.074185
1068.08,0.07594489
1070.01,0.0776065
1071.94,0.079414
1073.87,0.0808454
1075.79,0.0821716
1077.72,0.083485
1079.65,0.0848486
1081.58,0.0862211
1083.51,0.0878344
1085.44,0.0893593
1087.37,0.0899831
1089.29,0.0903288
1091.22,0.0908319
1093.15,0.0910012
1095.08,0.09079758
1097.01,0.0901983
1098.93,0.0895025
1100.86,0.0889357
1102.79,0.08786678
1104.72,0.0860967
1106.65,0.0843864
1108.58,0.0826474
1110.51,0.0808605
1112.43,0.0788349
1114.36,0.0764401
1116.29,0.0743346
1118.22,0.07236156
1120.15,0.0703177
1122.08,0.067964
1124.01,0.0657771
1125.93,0.0636567
1127.86,0.061256
1129.79,0.0588001
1131.72,0.0569324
1133.65,0.0551491
1135.58,0.0531097
1137.51,0.0511359
1139.43,0.0491963
1141.36,0.0475585
1143.29,0.0458677
1145.22,0.0443472
1147.15,0.0429906
1149.08,0.041326
1151,0.0397752
1152.93,0.0383163
1154.86,0.0369649
1156.79,0.0355979
1158.72,0.0341928
1160.65,0.0327698
1162.58,0.0314746
1164.5,0.0303837
1166.43,0.0291572
1168.36,0.0279014
1170.29,0.0267391
1172.22,0.0255756
1174.15,0.0246151
1176.07,0.0235338
1178,0.022409
1179.93,0.0215094
1181.86,0.0205459
1183.79,0.0194714
1185.72,0.0183641
1187.64,0.0174971
1189.57,0.0166708
1191.5,0.0157124
1193.43,0.0148471
1195.36,0.0139338
1197.29,0.0132537
1199.22,0.0124073
1201.14,0.0116006
1203.07,0.0108646
1205,0.0101547
1206.93,0.009419474
1208.86,0.008837688
1210.79,0.008291888
1212.71,0.007715536
1214.64,0.007061365
1216.57,0.00640288
1218.5,0.005766633
1220.43,0.005304858
1222.36,0.004818955
1224.29,0.004379196
1226.21,0.00409583
1228.14,0.003627359
1230.07,0.003344573
1232,0.003034425
1233.93,0.002676284
1235.86,0.002350167
1237.79,0.00214898
1239.71,0.001895137
1241.64,0.001643785
1243.57,0.001486872
1245.5,0.00129486
1247.43,0.001132114
1249.36,0.001035886
1251.28,0.0009047
1253.21,0.000842566
1255.14,0.00079437
1257.07,0.00066366
1259,0.000517605
1260.93,0.000434109
1262.86,0.00046658
1264.78,0.000423546
1266.71,0.000388765
1268.64,0.000314531
1270.57,0.000334821
1272.5,0.000421339
1274.43,0.000270379
1276.35,0.000176914
1278.28,9.69052E-05
1280.21,2.64062E-06
1282.14,6.76011E-05
1284.07,0.000147108
1286,1.81716E-05
1287.92,5.19901E-05
1289.85,-2.4842E-05
1291.78,-1.94439E-05
1293.71,6.53469E-05
1295.64,9.57904E-05
1297.57,4.81238E-05
1299.5,0.00013606
1301.42,3.39316E-05
1303.35,-3.1439E-06
1305.28,9.58233E-06
1307.21,8.37362E-05
1309.14,4.26528E-05
1311.07,-5.76198E-05
1312.99,4.59515E-05
1314.92,0.000183814
1316.85,0.000143514
1318.78,6.18106E-05
1320.71,1.65194E-05
1322.64,7.79911E-05
1324.57,8.8727E-05
1326.49,0.000156647
1328.42,0.000252792
1330.35,0.000214495
1332.28,5.97872E-05
1334.21,8.80591E-05
1336.14,0.000180839
1338.07,0.000166016
1339.99,0.000109052
1341.92,0.000203784
1343.85,0.000270489
1345.78,0.000265081
1347.71,0.000151894
1349.64,0.000211532
1351.57,0.000169872
1353.49,0.000228289
1355.42,0.00026061
1357.35,0.000144874
1359.28,0.000135916
1361.21,0.000206415
1363.13,0.000245955
1365.06,0.000338852
1366.99,0.000340778
1368.92,0.000201177
1370.85,0.000146288
1372.78,0.000100387
1374.71,0.000188103
1376.63,0.000218054
1378.56,0.000265703
1380.49,0.000366115
1382.42,0.000406855
1384.35,0.000427865
1386.28,0.000286364
1388.2,0.000379628
1390.13,0.000400263
1392.06,0.000359833
1393.99,0.000445339
1395.92,0.000492337
1397.85,0.000419254
1399.78,0.0005374
1401.7,0.000516796
1403.63,0.000359555
1405.56,0.00029364
1407.49,0.00041235
1409.42,0.000604121
1411.35,0.000573225
1413.28,0.000643567
1415.2,0.000544605
1417.13,0.000488505
1419.06,0.000553033
1420.99,0.000554108
1422.92,0.000644816
1424.85,0.000684798
1426.78,0.000627018
1428.7,0.00066828
1430.63,0.000642407
1432.56,0.000476373
1434.49,0.000334056
1436.42,0.00052178
1438.35,0.000672733
1440.27,0.000593292
1442.2,0.000528631
1444.13,0.000647185
1446.06,0.000684716
1447.99,0.000558289
1449.92,0.000542138
1451.85,0.000545035
1453.77,0.000513449
1455.7,0.000559614
1457.63,0.000608494
1459.56,0.000641685
1461.49,0.000763275
1463.42,0.000544262
1465.34,0.000518779
1467.27,0.000510665
1469.2,0.000578623
1471.13,0.000669983
1473.06,0.00059889
1474.99,0.00059681
1476.91,0.000658925
1478.84,0.000639075
1480.77,0.000525934
1482.7,0.000584967
1484.63,0.000731664
1486.56,0.000688804
1488.49,0.000661491
1490.41,0.000795815
1492.34,0.000723189
1494.27,0.000752114
1496.2,0.000807781
1498.13,0.000790174
1500.06,0.000790545
1501.98,0.000863506
1503.91,0.000903187
1505.84,0.000932993
1507.77,0.000958454
1509.7,0.000903676
1511.63,0.000774582
1513.56,0.000685893
1515.48,0.00062141
1517.41,0.000769131
1519.34,0.000795527
1521.27,0.000733645
1523.2,0.000773605
1525.13,0.000858463
1527.06,0.000828751
1528.98,0.000819986
1530.91,0.000630183
1532.84,0.000600751
1534.77,0.000691287
1536.7,0.000670918
1538.63,0.000598323
1540.55,0.000605012
1542.48,0.000600369
1544.41,0.000375872
1546.34,0.000429021
1548.27,0.000554112
1550.2,0.000753349
1552.12,0.001008787
1554.05,0.001344819
1555.98,0.00168083
1557.91,0.001340932
1559.84,0.000477428
1561.77,7.21081E-05
1563.7,0.000125516
1565.62,0.000234758
1567.55,0.0001946
1569.48,8.98941E-05
1571.41,0.000137839
1573.34,7.81436E-05
1575.27,-0.000103825
1577.19,-0.000138108
1579.12,-6.18951E-05
1581.05,-5.56337E-05
1582.98,-0.000175282
1584.91,-0.000126617
1586.84,-0.000156361
1588.77,-0.000296156
1590.69,-0.000303893
1592.62,-0.000234477
1594.55,-0.000290087
1596.48,-0.000449239
1598.41,-0.000507988
1599.37,-0.000621858