File: PhD Work/Raman Plotter_050524/Plot Data/UG Glasses/SLS/JC_UG_SLS4_5th_cut_bas_ther_vect_050624.csv
RamanShift,SLS4
49.85,1.58261E-05
51.78,3.79758E-05
53.71,5.32893E-05
55.64,0.000128844
57.56,0.000221773
59.49,0.00028835
61.42,0.000287951
63.35,0.000236877
65.28,0.000206325
67.21,0.00024018
69.13,0.000308777
71.06,0.000388709
72.99,0.000443658
74.92,0.000444404
76.85,0.000410534
78.78,0.000404239
80.71,0.00043415
82.63,0.00047971
84.56,0.000464074
86.49,0.000429241
88.42,0.0004428
90.35,0.000522758
92.28,0.000588338
94.2,0.000589154
96.13,0.000529604
98.06,0.000472641
99.99,0.000444247
101.92,0.000464322
103.85,0.000528448
105.78,0.000595828
107.7,0.000601931
109.63,0.000542454
111.56,0.000445838
113.49,0.000456236
115.42,0.000483076
117.35,0.000492386
119.27,0.000495879
121.2,0.000489642
123.13,0.000515716
125.06,0.000517982
126.99,0.00046337
128.92,0.000425503
130.85,0.000405415
132.77,0.000387418
134.7,0.000384393
136.63,0.000403514
138.56,0.000416175
140.49,0.000408958
142.42,0.000360149
144.34,0.000310453
146.27,0.000263711
148.2,0.000256104
150.13,0.000281065
152.06,0.000301323
153.99,0.000302417
155.92,0.00028788
157.84,0.000228347
159.77,0.000196893
161.7,0.000193177
163.63,0.000176513
165.56,0.000148418
167.49,0.000155496
169.41,0.000181698
171.34,0.000171797
173.27,0.000137225
175.2,0.000110027
177.13,9.70514E-05
179.06,7.92114E-05
180.99,7.34558E-05
182.91,7.95757E-05
184.84,6.30388E-05
186.77,4.8673E-05
188.7,7.15599E-05
190.63,6.30234E-05
192.56,2.53626E-05
194.48,2.21792E-05
196.41,1.2809E-05
198.34,-1.99762E-06
200.27,2.3325E-05
202.2,4.09857E-05
204.13,5.65016E-05
206.06,6.21179E-05
207.98,5.90449E-05
209.91,7.60644E-05
211.84,9.12881E-05
213.77,0.000108089
215.7,0.000123587
217.63,0.000125199
219.55,0.00014012
221.48,0.00017378
223.41,0.000213924
225.34,0.000199079
227.27,0.000183759
229.2,0.000199017
231.13,0.000236919
233.05,0.000272457
234.98,0.000250967
236.91,0.000228157
238.84,0.000268913
240.77,0.000333027
242.7,0.000364695
244.62,0.000414281
246.55,0.000482418
248.48,0.000497742
250.41,0.000531911
252.34,0.000569039
254.27,0.000603875
256.2,0.000655587
258.12,0.000656893
260.05,0.000684905
261.98,0.000782832
263.91,0.000824735
265.84,0.000878841
267.77,0.000916642
269.69,0.000923374
271.62,0.000978162
273.55,0.001051022
275.48,0.001096804
277.41,0.001103285
279.34,0.001161636
281.27,0.001303778
283.19,0.001426153
285.12,0.001465456
287.05,0.001531005
288.98,0.00167366
290.91,0.001775842
292.84,0.001823025
294.76,0.001907086
296.69,0.002035007
298.62,0.002142703
300.55,0.002251179
302.48,0.002348481
304.41,0.002443277
306.34,0.002503051
308.26,0.002635015
310.19,0.002804222
312.12,0.002930359
314.05,0.00303529
315.98,0.003179872
317.91,0.003295614
319.83,0.003350252
321.76,0.003445816
323.69,0.003623925
325.62,0.003771436
327.55,0.003900912
329.48,0.004011832
331.41,0.004142344
333.33,0.00429049
335.26,0.004485893
337.19,0.00465138
339.12,0.004832025
341.05,0.005048313
342.98,0.005214965
344.91,0.005383734
346.83,0.005569042
348.76,0.005744645
350.69,0.005884124
352.62,0.006109866
354.55,0.006328495
356.48,0.006470167
358.4,0.006674349
360.33,0.006874793
362.26,0.007006408
364.19,0.007152363
366.12,0.007378698
368.05,0.007538834
369.98,0.007664587
371.9,0.007862495
373.83,0.008084487
375.76,0.008296727
377.69,0.00844392
379.62,0.008592475
381.55,0.008747971
383.47,0.008927087
385.4,0.009119561
387.33,0.009388058
389.26,0.009580604
391.19,0.009776472
393.12,0.009953855
395.05,0.0101622
396.97,0.0104223
398.9,0.0106484
400.83,0.0107989
402.76,0.0109852
404.69,0.0112701
406.62,0.0116373
408.54,0.0120112
410.47,0.0122209
412.4,0.0122613
414.33,0.0124187
416.26,0.0126151
418.19,0.0128766
420.12,0.0132395
422.04,0.0134466
423.97,0.0136461
425.9,0.01385361
427.83,0.0141135
429.76,0.0143197
431.69,0.0146601
433.61,0.01489991
435.54,0.0151101
437.47,0.0153203
439.4,0.0155149
441.33,0.0157896
443.26,0.0160511
445.19,0.0163199
447.11,0.0167209
449.04,0.0170544
450.97,0.0172727
452.9,0.0175297
454.83,0.0178262
456.76,0.0179456
458.68,0.0180073
460.61,0.0182522
462.54,0.0185864
464.47,0.0187491
466.4,0.0189992
468.33,0.0192197
470.26,0.0192568
472.18,0.019321
474.11,0.0195041
476.04,0.0196464
477.97,0.0197379
479.9,0.0198292
481.83,0.0199455
483.75,0.0200829
485.68,0.0201394
487.61,0.0201055
489.54,0.0199698
491.47,0.0198414
493.4,0.0198102
495.33,0.0198657
497.25,0.0198963
499.18,0.01985595
501.11,0.0199179
503.04,0.0201
504.97,0.0201291
506.9,0.020106
508.82,0.0201767
510.75,0.0203144
512.68,0.02038763
514.61,0.0204923
516.54,0.0206098
518.47,0.0207765
520.4,0.0208991
522.32,0.0209786
524.25,0.02116
526.18,0.0214181
528.11,0.0215776
530.04,0.0217641
531.97,0.022242
533.89,0.0227185
535.82,0.0230262
537.75,0.0231148
539.68,0.0232618
541.61,0.0233935
543.54,0.0236522
545.47,0.0239193
547.39,0.0240848
549.32,0.0239967
551.25,0.0237085
553.18,0.023542
555.11,0.023622
557.04,0.0235945
558.96,0.0233259
560.89,0.0230239
562.82,0.02255487
564.75,0.022038
566.68,0.0216066
568.61,0.0212691
570.54,0.0209352
572.46,0.0204155
574.39,0.02001758
576.32,0.01964973
578.25,0.0192462
580.18,0.018661
582.11,0.0181717
584.03,0.0179085
585.96,0.0175031
587.89,0.0168655
589.82,0.0163152
591.75,0.0159747
593.68,0.0154759
595.61,0.0149802
597.53,0.0145207
599.46,0.0139158
601.39,0.0133752
603.32,0.0129309
605.25,0.0124645
607.18,0.0119625
609.1,0.0115084
611.03,0.0109716
612.96,0.010483
614.89,0.0101126
616.82,0.009557512
618.75,0.009094231
620.68,0.008721253
622.6,0.008285575
624.53,0.007838335
626.46,0.007490885
628.39,0.007249947
630.32,0.006905483
632.25,0.006547267
634.18,0.00634383
636.1,0.006124773
638.03,0.005890186
639.96,0.005754479
641.89,0.005488505
643.82,0.005282526
645.75,0.005091964
647.67,0.004956701
649.6,0.004857618
651.53,0.004777831
653.46,0.004516441
655.39,0.004230011
657.32,0.004147079
659.25,0.004066522
661.17,0.003953258
663.1,0.003742632
665.03,0.003609902
666.96,0.003505772
668.89,0.003318047
670.82,0.003224131
672.74,0.003034142
674.67,0.002797997
676.6,0.002752548
678.53,0.002664669
680.46,0.002470352
682.39,0.002256531
684.32,0.002144952
686.24,0.002109155
688.17,0.001833815
690.1,0.001655251
692.03,0.001571432
693.96,0.001412705
695.89,0.001246795
697.81,0.001098616
699.74,0.000959004
701.67,0.00078713
703.6,0.000642662
705.53,0.000624136
707.46,0.000627936
709.39,0.000520287
711.31,0.000351242
713.24,0.000329045
715.17,0.000284342
717.1,0.000152206
719.03,6.15809E-05
720.96,6.50076E-05
722.88,1.31082E-05
724.81,0.000184064
726.74,0.000260989
728.67,0.000203312
730.6,0.000175275
732.53,0.000197116
734.46,0.000185981
736.38,0.000201719
738.31,0.000321851
740.24,0.000456462
742.17,0.000409739
744.1,0.000542562
746.03,0.000775078
747.95,0.000951272
749.88,0.000971414
751.81,0.001132673
753.74,0.001174597
755.67,0.001279191
757.6,0.001460929
759.53,0.001661414
761.45,0.001835377
763.38,0.001989693
765.31,0.002145172
767.24,0.002361695
769.17,0.002480805
771.1,0.002597285
773.02,0.002867489
774.95,0.00317888
776.88,0.003270499
778.81,0.003283856
780.74,0.003326249
782.67,0.003452128
784.6,0.003520953
786.52,0.003626574
788.45,0.003725802
790.38,0.003796519
792.31,0.003805427
794.24,0.003836622
796.17,0.003849673
798.09,0.003748026
800.02,0.003627466
801.95,0.003565882
803.88,0.003496584
805.81,0.003539408
807.74,0.003409735
809.67,0.0031814
811.59,0.002898774
813.52,0.002675385
815.45,0.002370931
817.38,0.002202131
819.31,0.00199804
821.24,0.00191568
823.16,0.001956027
825.09,0.001541391
827.02,0.00133351
828.95,0.001143975
830.88,0.001023579
832.81,0.001183818
834.74,0.001258974
836.66,0.001291402
838.59,0.001454271
840.52,0.001594526
842.45,0.001585167
844.38,0.00172689
846.31,0.002064826
848.23,0.002428681
850.16,0.002830936
852.09,0.003432549
854.02,0.004025601
855.95,0.004420032
857.88,0.004978906
859.81,0.005788993
861.73,0.006550567
863.66,0.007300277
865.59,0.008082958
867.52,0.009050951
869.45,0.009987259
871.38,0.0108626
873.3,0.0119831
875.23,0.0131307
877.16,0.0144056
879.09,0.0156373
881.02,0.0166117
882.95,0.0181125
884.88,0.01952033
886.8,0.0209058
888.73,0.0224388
890.66,0.0240948
892.59,0.0256276
894.52,0.0272582
896.45,0.0290816
898.37,0.03104723
900.3,0.0329117
902.23,0.0348767
904.16,0.0368
906.09,0.0384163
908.02,0.0400453
909.95,0.0419138
911.87,0.0437955
913.8,0.045398
915.73,0.0472245
917.66,0.04916547
919.59,0.0509928
921.52,0.0525009
923.45,0.0543099
925.37,0.0561581
927.3,0.0579446
929.23,0.0595295
931.16,0.0610098
933.09,0.0624925
935.02,0.06377493
936.94,0.0650438
938.87,0.0663879
940.8,0.0677018
942.73,0.0688301
944.66,0.0696568
946.59,0.0706022
948.52,0.0719097
950.44,0.0727801
952.37,0.0733732
954.3,0.0740889
956.23,0.0746912
958.16,0.07490511
960.09,0.0753242
962.01,0.0759078
963.94,0.07602535
965.87,0.0760297
967.8,0.0759059
969.73,0.0755963
971.66,0.0756018
973.59,0.0754169
975.51,0.0752146
977.44,0.0750167
979.37,0.0745579
981.3,0.0736887
983.23,0.0728192
985.16,0.07230142
987.08,0.0717939
989.01,0.0710273
990.94,0.0700957
992.87,0.0696264
994.8,0.0688079
996.73,0.068038
998.66,0.0670483
1000.58,0.0659238
1002.51,0.0652821
1004.44,0.0646964
1006.37,0.0639333
1008.3,0.0632012
1010.23,0.0624349
1012.15,0.06155831
1014.08,0.0610133
1016.01,0.06037923
1017.94,0.0598526
1019.87,0.0594438
1021.8,0.0588855
1023.73,0.0586687
1025.65,0.0584394
1027.58,0.0581018
1029.51,0.0579665
1031.44,0.0578091
1033.37,0.0575996
1035.3,0.0575221
1037.23,0.0575306
1039.15,0.0575689
1041.08,0.0576133
1043.01,0.0576049
1044.94,0.0574661
1046.87,0.0575239
1048.8,0.0575925
1050.72,0.0577219
1052.65,0.0578421
1054.58,0.0581042
1056.51,0.0584565
1058.44,0.0587044
1060.37,0.0587253
1062.3,0.0586815
1064.22,0.05922123
1066.15,0.0593538
1068.08,0.059582
1070.01,0.0597893
1071.94,0.0600131
1073.87,0.0602536
1075.79,0.0600842
1077.72,0.0597084
1079.65,0.0594988
1081.58,0.0594717
1083.51,0.0595636
1085.44,0.0596172
1087.37,0.0591679
1089.29,0.0583265
1091.22,0.0578432
1093.15,0.0575008
1095.08,0.0567368
1097.01,0.0557975
1098.94,0.0549975
1100.86,0.0542759
1102.79,0.053223
1104.72,0.051847
1106.65,0.0506097
1108.58,0.049411
1110.51,0.0483581
1112.44,0.0470187
1114.36,0.0453058
1116.29,0.0443877
1118.22,0.0431367
1120.15,0.0421294
1122.08,0.0406451
1124.01,0.039285
1125.93,0.03830045
1127.86,0.0369225
1129.79,0.0354119
1131.72,0.0341875
1133.65,0.03303216
1135.58,0.0319349
1137.51,0.0310524
1139.43,0.0297244
1141.36,0.0288209
1143.29,0.02784308
1145.22,0.0268665
1147.15,0.0259615
1149.08,0.0249231
1151,0.0238676
1152.93,0.0230198
1154.86,0.0221974
1156.79,0.0213474
1158.72,0.0204817
1160.65,0.0194336
1162.58,0.0188688
1164.5,0.0181876
1166.43,0.01757518
1168.36,0.0168221
1170.29,0.0157834
1172.22,0.015191
1174.15,0.0143969
1176.07,0.0135021
1178,0.0128518
1179.93,0.0124531
1181.86,0.0116331
1183.79,0.01096145
1185.72,0.0104638
1187.65,0.009945339
1189.57,0.009375091
1191.5,0.008784009
1193.43,0.008300938
1195.36,0.007920401
1197.29,0.007309222
1199.22,0.006651905
1201.14,0.006227153
1203.07,0.005831613
1205,0.005290802
1206.93,0.004978513
1208.86,0.004539464
1210.79,0.004198627
1212.72,0.003893774
1214.64,0.003461248
1216.57,0.003007879
1218.5,0.002596594
1220.43,0.00243038
1222.36,0.002148907
1224.29,0.001783264
1226.21,0.001587777
1228.14,0.00156377
1230.07,0.001270532
1232,0.001027077
1233.93,0.000897982
1235.86,0.000690758
1237.79,0.000508174
1239.71,0.000634731
1241.64,0.000606102
1243.57,0.000382275
1245.5,0.000254766
1247.43,0.000263265
1249.36,0.000219203
1251.28,-2.17587E-06
1253.21,0.000155602
1255.14,0.000234812
1257.07,0.000188898
1259,0.000129238
1260.93,8.2188E-05
1262.86,1.47065E-05
1264.78,0.000245086
1266.71,0.000183549
1268.64,8.80701E-05
1270.57,4.52231E-05
1272.5,4.19428E-05
1274.43,0.000319721
1276.35,0.000168374
1278.28,0.000265059
1280.21,0.000213428
1282.14,0.000242261
1284.07,0.000453549
1286,0.000468633
1287.93,0.000442626
1289.85,0.000524982
1291.78,0.000600536
1293.71,0.000635
1295.64,0.00067607
1297.57,0.000812979
1299.5,0.001032526
1301.42,0.000956336
1303.35,0.001114171
1305.28,0.001203105
1307.21,0.001167319
1309.14,0.001249023
1311.07,0.001316772
1313,0.001398349
1314.92,0.001396052
1316.85,0.001526342
1318.78,0.001754887
1320.71,0.001724154
1322.64,0.001707018
1324.57,0.001823388
1326.5,0.00162206
1328.42,0.001299281
1330.35,0.001293978
1332.28,0.001451662
1334.21,0.001296511
1336.14,0.001518288
1338.07,0.001283418
1339.99,0.000990034
1341.92,0.001154128
1343.85,0.001217943
1345.78,0.000842642
1347.71,0.00096315
1349.64,0.000968197
1351.57,0.000734082
1353.49,0.000643788
1355.42,0.000719964
1357.35,0.000694208
1359.28,0.000383634
1361.21,0.000634174
1363.14,0.000695029
1365.06,0.000902476
1366.99,0.00081651
1368.92,0.000288264
1370.85,0.000450981
1372.78,0.000436688
1374.71,0.000555294
1376.64,0.000614725
1378.56,0.000629514
1380.49,0.000696178
1382.42,0.00075535
1384.35,0.000388612
1386.28,0.000439395
1388.21,0.000452598
1390.13,0.000465591
1392.06,0.000478354
1393.99,0.000392874
1395.92,0.000269046
1397.85,0.000363973
1399.78,0.000254282
1401.71,0.000349018
1403.63,0.000375382
1405.56,0.000363455
1407.49,0.000488709
1409.42,0.000461147
1411.35,0.000249274
1413.28,0.000458747
1415.2,0.000561068
1417.13,0.000486232
1419.06,0.000395448
1420.99,0.000365984
1422.92,0.000429176
1424.85,0.000399213
1426.78,0.00044669
1428.7,0.000400662
1430.63,0.00044007
1432.56,0.000745263
1434.49,0.000698839
1436.42,0.000706969
1438.35,0.000502655
1440.27,0.000447084
1442.2,0.000414739
1444.13,0.000500637
1446.06,0.000768762
1447.99,0.000593446
1449.92,0.000472936
1451.85,0.000359767
1453.77,0.000461378
1455.7,0.000523173
1457.63,0.000569001
1459.56,0.000943529
1461.49,0.000652582
1463.42,0.0004248
1465.34,0.000639401
1467.27,0.000596161
1469.2,0.000625401
1471.13,0.00079233
1473.06,0.00056195
1474.99,0.000485099
1476.92,0.000570739
1478.84,0.000632115
1480.77,0.000840638
1482.7,0.000943287
1484.63,0.000849286
1486.56,0.00073838
1488.49,0.000503469
1490.41,0.000597523
1492.34,0.000716491
1494.27,0.000752996
1496.2,0.000731478
1498.13,0.000668244
1500.06,0.000579716
1501.99,0.000690754
1503.91,0.000626845
1505.84,0.00063779
1507.77,0.000925085
1509.7,0.000886027
1511.63,0.0006282
1513.56,0.000781955
1515.48,0.000784403
1517.41,0.000845837
1519.34,0.000695807
1521.27,0.00074017
1523.2,0.000708172
1525.13,0.000590912
1527.06,0.000788484
1528.98,0.000756256
1530.91,0.000706667
1532.84,0.000639712
1534.77,0.000495242
1536.7,0.000341622
1538.63,0.000299351
1540.55,0.000377712
1542.48,0.000447567
1544.41,0.000491654
1546.34,0.000605199
1548.27,0.000805923
1550.2,0.000981202
1552.13,0.001575253
1554.05,0.002983026
1555.98,0.003835957
1557.91,0.002975339
1559.84,0.001488967
1561.77,0.000621414
1563.7,0.000331815
1565.62,0.000164751
1567.55,1.46927E-05
1569.48,0.000297588
1571.41,8.52227E-05
1573.34,0.000271564
1575.27,0.000182928
1577.2,0.00014744
1579.12,0.000326037
1581.05,0.000469418
1582.98,0.000317935
1584.91,0.000165971
1586.84,0.000121296
1588.77,-3.14404E-05
1590.69,-4.03878E-05
1592.62,-2.23407E-05
1594.55,-9.45915E-05
1596.48,-9.45913E-05
1598.41,0.000132225
1599.37,-3.99746E-05