File: PhD Work/Raman Plotter_050524/Plot Data/UG Glasses/SLS/JC_UG_SLS2_5th_cut_bas_ther_vect_050624.csv
RamanShift,SLS2
49.85,-0.000109631
51.78,-8.82884E-05
53.71,-7.19701E-05
55.64,-2.89357E-05
57.56,2.03009E-05
59.49,5.46255E-05
61.42,6.29389E-05
63.35,4.54807E-05
65.28,3.50888E-05
67.21,5.43959E-05
69.13,9.10795E-05
71.06,0.000135681
72.99,0.000166468
74.92,0.000169819
76.85,0.000166824
78.78,0.000169223
80.71,0.000181905
82.63,0.000203089
84.56,0.000201944
86.49,0.000190539
88.42,0.000204312
90.35,0.000248607
92.28,0.000280791
94.2,0.00028271
96.13,0.000261619
98.06,0.000235185
99.99,0.000226193
101.92,0.000238225
103.85,0.000269026
105.78,0.000298958
107.7,0.000304021
109.63,0.000283397
111.56,0.000251033
113.49,0.0002606
115.42,0.000276563
117.35,0.000280324
119.27,0.000279046
121.2,0.000275245
123.13,0.000294633
125.06,0.000298344
126.99,0.000271186
128.92,0.000252223
130.85,0.000245471
132.77,0.000239794
134.7,0.000245531
136.63,0.000254425
138.56,0.000252975
140.49,0.000246015
142.42,0.000229955
144.34,0.000199588
146.27,0.000161199
148.2,0.000152775
150.13,0.000166637
152.06,0.000181454
153.99,0.0001816
155.92,0.000169533
157.84,0.000149138
159.77,0.000129828
161.7,0.000117951
163.63,9.93039E-05
165.56,8.27225E-05
167.49,8.55002E-05
169.41,0.000102032
171.34,0.000105181
173.27,8.24545E-05
175.2,6.43772E-05
177.13,5.6711E-05
179.06,4.31678E-05
180.99,4.65084E-05
182.91,5.82624E-05
184.84,4.56563E-05
186.77,3.14794E-05
188.7,3.72365E-05
190.63,2.96948E-05
192.56,1.09678E-05
194.48,1.80501E-05
196.41,1.33618E-05
198.34,-7.49192E-07
200.27,2.35662E-05
202.2,5.24211E-05
204.13,7.42451E-05
206.06,9.30877E-05
207.98,0.000108254
209.91,0.000113956
211.84,0.000139318
213.77,0.000157951
215.7,0.00017149
217.63,0.000201795
219.55,0.000215073
221.48,0.000226629
223.41,0.00025173
225.34,0.000265467
227.27,0.000270083
229.2,0.000299053
231.13,0.000352106
233.05,0.000395073
234.98,0.000415392
236.91,0.000422501
238.84,0.000459235
240.77,0.000517083
242.7,0.000581316
244.62,0.000650724
246.55,0.000701706
248.48,0.000741178
250.41,0.000782485
252.34,0.000836418
254.27,0.000903759
256.2,0.000977619
258.12,0.00100285
260.05,0.001048752
261.98,0.001160005
263.91,0.001245911
265.84,0.001290008
267.77,0.001333241
269.69,0.001387398
271.62,0.001466608
273.55,0.001567133
275.48,0.001646563
277.41,0.001677212
279.34,0.001724098
281.27,0.001877474
283.19,0.002030197
285.12,0.002109323
287.05,0.002206718
288.98,0.002341873
290.91,0.002461536
292.84,0.002558421
294.76,0.002672113
296.69,0.002832716
298.62,0.002975143
300.55,0.003112363
302.48,0.003239917
304.41,0.003359374
306.34,0.003440592
308.26,0.003587776
310.19,0.003784926
312.12,0.003961403
314.05,0.004095062
315.98,0.004244175
317.91,0.00440047
319.83,0.004512526
321.76,0.004617339
323.69,0.004773539
325.62,0.004939741
327.55,0.005084246
329.48,0.005215019
331.41,0.005386315
333.33,0.005583052
335.26,0.005759555
337.19,0.005917208
339.12,0.006112019
341.05,0.006337591
342.98,0.006546143
344.91,0.006677576
346.83,0.0068384
348.76,0.007081826
350.69,0.007284792
352.62,0.00747831
354.55,0.007668133
356.48,0.007890779
358.4,0.008111403
360.33,0.008316004
362.26,0.00846311
364.19,0.008617085
366.12,0.008803199
368.05,0.009001293
369.98,0.009169688
371.9,0.009348896
373.83,0.00952567
375.76,0.009717083
377.69,0.009892687
379.62,0.0100891
381.55,0.01026201
383.47,0.0104168
385.4,0.0105818
387.33,0.0108696
389.26,0.0111509
391.19,0.0113101
393.12,0.011487
395.05,0.0117282
396.97,0.0119712
398.9,0.0121986
400.83,0.0123426
402.76,0.0125162
404.69,0.0127704
406.62,0.0130313
408.54,0.0133666
410.47,0.0136225
412.4,0.0137675
414.33,0.0139981
416.26,0.0142255
418.19,0.0144365
420.12,0.014738
422.04,0.0150074
423.97,0.0152127
425.9,0.0154055
427.83,0.01567668
429.76,0.0159815
431.69,0.0162006
433.61,0.0164279
435.54,0.0167404
437.47,0.0170468
439.4,0.017253
441.33,0.01746053
443.26,0.0176711
445.19,0.0179587
447.11,0.0183175
449.04,0.0186358
450.97,0.0188594
452.9,0.0191089
454.83,0.0193728
456.76,0.0194971
458.68,0.0195643
460.61,0.0197775
462.54,0.0200595
464.47,0.0202903
466.4,0.0204936
468.33,0.0206176
470.26,0.0206443
472.18,0.0207436
474.11,0.0208711
476.04,0.0209762
477.97,0.0211103
479.9,0.0212329
481.83,0.0213923
483.75,0.0215526
485.68,0.0216149
487.61,0.0216003
489.54,0.0215628
491.47,0.021487
493.4,0.0214661
495.33,0.0215561
497.25,0.0216214
499.18,0.0215986
501.11,0.0216419
503.04,0.0217799
504.97,0.021885
506.9,0.0220166
508.82,0.0221962
510.75,0.022399
512.68,0.0225718
514.61,0.02281137
516.54,0.02303123
518.47,0.0232794
520.4,0.0235077
522.32,0.0237111
524.25,0.0240278
526.18,0.02439401
528.11,0.0247046
530.04,0.0252224
531.97,0.0258801
533.89,0.0264435
535.82,0.0268767
537.75,0.0272989
539.68,0.0276334
541.61,0.0279667
543.54,0.02849256
545.47,0.0290416
547.39,0.0293582
549.32,0.0295188
551.25,0.0295054
553.18,0.0295534
555.11,0.0297801
557.04,0.02991985
558.96,0.0298992
560.89,0.0298679
562.82,0.0296063
564.75,0.0291998
566.68,0.02891919
568.61,0.0286991
570.54,0.0284334
572.46,0.02811882
574.39,0.0277686
576.32,0.02738177
578.25,0.0269905
580.18,0.0264836
582.11,0.0261078
584.03,0.0258575
585.96,0.0254539
587.89,0.0249098
589.82,0.02450166
591.75,0.0242012
593.68,0.0237063
595.61,0.0232173
597.53,0.0227596
599.46,0.022233
601.39,0.0216078
603.32,0.02102973
605.25,0.0205416
607.18,0.0200899
609.1,0.01948467
611.03,0.0188819
612.96,0.0183668
614.89,0.01782039
616.82,0.0173654
618.75,0.0169394
620.68,0.0165352
622.6,0.016047
624.53,0.0155137
626.46,0.0150883
628.39,0.0148047
630.32,0.0144479
632.25,0.0141023
634.18,0.01384842
636.1,0.0135548
638.03,0.0131859
639.96,0.0129283
641.89,0.0127431
643.82,0.0124448
645.75,0.0120402
647.67,0.0117361
649.6,0.0115856
651.53,0.0113042
653.46,0.0109685
655.39,0.0106135
657.32,0.0103795
659.25,0.0101228
661.17,0.009828975
663.1,0.009525971
665.03,0.009284805
666.96,0.009003727
668.89,0.008693599
670.82,0.008372503
672.74,0.008084166
674.67,0.007802243
676.6,0.007485201
678.53,0.007187222
680.46,0.006915709
682.39,0.006598724
684.32,0.006292384
686.24,0.006070908
688.17,0.005742686
690.1,0.00547795
692.03,0.005240643
693.96,0.004923319
695.89,0.004643657
697.81,0.004344007
699.74,0.004055686
701.67,0.003769767
703.6,0.003540377
705.53,0.003336453
707.46,0.003158293
709.39,0.003007697
711.31,0.002887957
713.24,0.002646672
715.17,0.002520237
717.1,0.002325202
719.03,0.002165872
720.96,0.002123188
722.88,0.002047503
724.81,0.001949508
726.74,0.001885256
728.67,0.001848829
730.6,0.001742825
732.53,0.001629783
734.46,0.001668248
736.38,0.001667139
738.31,0.001637326
740.24,0.001697003
742.17,0.00182618
744.1,0.001948157
746.03,0.002028852
747.95,0.002082427
749.88,0.002146163
751.81,0.00231485
753.74,0.00247151
755.67,0.002683426
757.6,0.002865337
759.53,0.003020285
761.45,0.003272413
763.38,0.003499552
765.31,0.003677975
767.24,0.003911146
769.17,0.004102031
771.1,0.004290729
773.02,0.004510937
774.95,0.004761407
776.88,0.004945319
778.81,0.004993692
780.74,0.005056034
782.67,0.005199475
784.6,0.005267889
786.52,0.005243215
788.45,0.005324231
790.38,0.005391772
792.31,0.005384632
794.24,0.005366888
796.17,0.005282259
798.09,0.005093054
800.02,0.004904531
801.95,0.004789211
803.88,0.004673165
805.81,0.004588443
807.74,0.004336912
809.67,0.004101765
811.59,0.003821929
813.52,0.003461098
815.45,0.0030999
817.38,0.002803697
819.31,0.002540307
821.24,0.002284458
823.16,0.001955662
825.09,0.001628667
827.02,0.00124082
828.95,0.000882115
830.88,0.000621367
832.81,0.000426005
834.74,0.000302206
836.66,0.000119776
838.59,6.37823E-05
840.52,7.14069E-05
842.45,1.88014E-05
844.38,3.02045E-05
846.31,0.000140292
848.23,0.000271938
850.16,0.000455873
852.09,0.000805321
854.02,0.00097847
855.95,0.001267998
857.88,0.001680669
859.81,0.002107294
861.73,0.002470331
863.66,0.003002703
865.59,0.003567316
867.52,0.004133129
869.45,0.004672658
871.38,0.005419681
873.3,0.006078027
875.23,0.006799406
877.16,0.007667477
879.09,0.008589995
881.02,0.009401854
882.95,0.0102801
884.88,0.0111831
886.8,0.0122314
888.73,0.0133661
890.66,0.0144301
892.59,0.015599
894.52,0.0168514
896.45,0.0181408
898.37,0.0194694
900.3,0.0208094
902.23,0.0222035
904.16,0.0235288
906.09,0.0247802
908.02,0.0261251
909.95,0.0275683
911.87,0.0289766
913.8,0.0304114
915.73,0.0319141
917.66,0.0333762
919.59,0.0347928
921.52,0.03609636
923.45,0.0375164
925.37,0.03908707
927.3,0.040715
929.23,0.0421121
931.16,0.0433278
933.09,0.0445646
935.02,0.0458222
936.94,0.0470918
938.87,0.0483074
940.8,0.0494485
942.73,0.0505453
944.66,0.0514925
946.59,0.0523784
948.52,0.0533078
950.44,0.05398385
952.37,0.054503
954.3,0.0552293
956.23,0.0558414
958.16,0.0561037
960.09,0.0565088
962.01,0.0569815
963.94,0.0571664
965.87,0.0573046
967.8,0.0573599
969.73,0.0572415
971.66,0.057494
973.59,0.0575865
975.51,0.0575444
977.44,0.05760671
979.37,0.0576869
981.3,0.0573674
983.23,0.057137
985.16,0.057061
987.08,0.0569624
989.01,0.0567897
990.94,0.0566248
992.87,0.0564029
994.8,0.0562232
996.73,0.05614
998.66,0.0557732
1000.58,0.0555204
1002.51,0.0553954
1004.44,0.0552925
1006.37,0.0551346
1008.3,0.0550153
1010.23,0.0548427
1012.15,0.0546702
1014.08,0.0545972
1016.01,0.054702
1017.94,0.0548258
1019.87,0.05470049
1021.8,0.0548428
1023.73,0.0551661
1025.65,0.0553179
1027.58,0.0554369
1029.51,0.0558274
1031.44,0.0560492
1033.37,0.0562954
1035.3,0.05680141
1037.23,0.0574755
1039.15,0.0580632
1041.08,0.0585037
1043.01,0.0590244
1044.94,0.059547
1046.87,0.0602722
1048.8,0.0609229
1050.72,0.0615779
1052.65,0.0625052
1054.58,0.0634591
1056.51,0.0644015
1058.44,0.0653725
1060.37,0.0662898
1062.3,0.0670261
1064.22,0.06789605
1066.15,0.0691021
1068.08,0.0702749
1070.01,0.0712969
1071.94,0.0723332
1073.87,0.0731049
1075.79,0.0736963
1077.72,0.0743033
1079.65,0.0749873
1081.58,0.0756864
1083.51,0.076543
1085.44,0.0772213
1087.37,0.0773587
1089.29,0.07725
1091.22,0.0772194
1093.15,0.0769836
1095.08,0.0765546
1097.01,0.0757863
1098.94,0.0749507
1100.86,0.07425211
1102.79,0.0731484
1104.72,0.0714849
1106.65,0.0700522
1108.58,0.0687056
1110.51,0.0670428
1112.44,0.0652111
1114.36,0.06331376
1116.29,0.0615211
1118.22,0.0598976
1120.15,0.0581986
1122.08,0.05628336
1124.01,0.0544674
1125.93,0.0527022
1127.86,0.0508503
1129.79,0.0488151
1131.72,0.0472517
1133.65,0.0457799
1135.58,0.0441444
1137.51,0.0425782
1139.43,0.0409079
1141.36,0.03947075
1143.29,0.0380437
1145.22,0.03676818
1147.15,0.0355896
1149.08,0.034096
1151,0.0328637
1152.93,0.031676
1154.86,0.0305196
1156.79,0.0293466
1158.72,0.0281567
1160.65,0.026936
1162.58,0.0258116
1164.5,0.02489736
1166.43,0.02385689
1168.36,0.0227489
1170.29,0.02172729
1172.22,0.0207897
1174.15,0.0199738
1176.07,0.019111
1178,0.01821551
1179.93,0.0174314
1181.86,0.016577
1183.79,0.0156928
1185.72,0.0147783
1187.65,0.0140314
1189.57,0.01333045
1191.5,0.0125534
1193.43,0.0118079
1195.36,0.0110443
1197.29,0.01051537
1199.22,0.009801301
1201.14,0.009089825
1203.07,0.008496442
1205,0.007959655
1206.93,0.007322284
1208.86,0.006792166
1210.79,0.006331167
1212.72,0.005859045
1214.64,0.00533375
1216.57,0.004866081
1218.5,0.004345055
1220.43,0.003999467
1222.36,0.003588773
1224.29,0.003215443
1226.21,0.003019283
1228.14,0.00259109
1230.07,0.00241359
1232,0.002207639
1233.93,0.001924152
1235.86,0.001685193
1237.79,0.001549353
1239.71,0.001323554
1241.64,0.001213626
1243.57,0.001087537
1245.5,0.000942098
1247.43,0.000829899
1249.36,0.000757359
1251.28,0.000702997
1253.21,0.000682375
1255.14,0.000623877
1257.07,0.000489704
1259,0.000373532
1260.93,0.00035722
1262.86,0.000384659
1264.78,0.000333083
1266.71,0.000359993
1268.64,0.000313822
1270.57,0.000273518
1272.5,0.000312295
1274.43,0.000229778
1276.35,0.000124369
1278.28,9.81515E-05
1280.21,4.26587E-05
1282.14,8.94574E-05
1284.07,0.000158664
1286,6.33151E-05
1287.93,0.000115961
1289.85,5.85117E-05
1291.78,8.47824E-05
1293.71,0.000143362
1295.64,0.000123688
1297.57,5.79437E-05
1299.5,0.000106097
1301.42,0.0001215
1303.35,5.11884E-05
1305.28,2.96465E-05
1307.21,0.000116481
1309.14,0.000107604
1311.07,7.85523E-05
1313,0.000128652
1314.92,0.000198721
1316.85,0.000152179
1318.78,5.51656E-05
1320.71,2.09619E-05
1322.64,0.000163718
1324.57,0.000162562
1326.5,0.000218236
1328.42,0.000267263
1330.35,0.000231749
1332.28,0.000128252
1334.21,9.17941E-05
1336.14,0.000143109
1338.07,0.000156975
1339.99,0.000143552
1341.92,0.000197875
1343.85,0.000265811
1345.78,0.000296082
1347.71,0.000175277
1349.64,0.000149988
1351.57,0.000124349
1353.49,0.000170976
1355.42,0.000196621
1357.35,0.000132084
1359.28,0.000174602
1361.21,0.000213559
1363.14,0.000189739
1365.06,0.000263452
1366.99,0.00031605
1368.92,0.000221534
1370.85,8.43287E-05
1372.78,7.99411E-05
1374.71,0.000166861
1376.64,0.000172733
1378.56,0.000196262
1380.49,0.000258412
1382.42,0.000249617
1384.35,0.000290325
1386.28,0.000195657
1388.21,0.000296619
1390.13,0.000305017
1392.06,0.00029155
1393.99,0.00038543
1395.92,0.000371635
1397.85,0.000292781
1399.78,0.000361304
1401.71,0.000299795
1403.63,0.000227206
1405.56,0.000222847
1407.49,0.00024734
1409.42,0.000319043
1411.35,0.000310592
1413.28,0.000426122
1415.2,0.000388389
1417.13,0.000287787
1419.06,0.00029315
1420.99,0.000390343
1422.92,0.000443467
1424.85,0.00054092
1426.78,0.000423966
1428.7,0.000432652
1430.63,0.000452113
1432.56,0.000259444
1434.49,4.72797E-05
1436.42,0.00030083
1438.35,0.00048033
1440.27,0.000360822
1442.2,0.000281777
1444.13,0.000401571
1446.06,0.000476434
1447.99,0.000370287
1449.92,0.000384575
1451.85,0.000410126
1453.77,0.000337227
1455.7,0.000370093
1457.63,0.000475273
1459.56,0.000454824
1461.49,0.000564067
1463.42,0.000302296
1465.34,0.000361792
1467.27,0.000367343
1469.2,0.000376634
1471.13,0.000435942
1473.06,0.00037563
1474.99,0.000400087
1476.92,0.000397382
1478.84,0.000387046
1480.77,0.000387968
1482.7,0.000396572
1484.63,0.000409002
1486.56,0.000448729
1488.49,0.000445415
1490.41,0.000563855
1492.34,0.000521233
1494.27,0.000482298
1496.2,0.000565379
1498.13,0.000605204
1500.06,0.000490748
1501.99,0.000518505
1503.91,0.000479042
1505.84,0.000530578
1507.77,0.000590181
1509.7,0.000578064
1511.63,0.000505852
1513.56,0.000425309
1515.48,0.000320613
1517.41,0.000460388
1519.34,0.00053214
1521.27,0.000450817
1523.2,0.000474194
1525.13,0.000574489
1527.06,0.000512915
1528.98,0.000524451
1530.91,0.000275356
1532.84,0.000265775
1534.77,0.000349999
1536.7,0.000344518
1538.63,0.000318501
1540.55,0.0003747
1542.48,0.000352687
1544.41,0.000235884
1546.34,0.000258864
1548.27,0.000306681
1550.2,0.000474635
1552.13,0.000796497
1554.05,0.001223512
1555.98,0.001668305
1557.91,0.001277255
1559.84,0.00048009
1561.77,6.89616E-05
1563.7,2.90853E-05
1565.62,9.84161E-05
1567.55,0.000117276
1569.48,-6.87221E-06
1571.41,-7.55029E-07
1573.34,7.71761E-05
1575.27,-0.000153367
1577.2,-0.0001686
1579.12,-7.74725E-05
1581.05,-0.000118088
1582.98,-9.92008E-05
1584.91,-0.000110076
1586.84,-0.00015513
1588.77,-0.000260207
1590.69,-0.000275281
1592.62,-0.000226261
1594.55,-0.000250144
1596.48,-0.000373136
1598.41,-0.000410188
1599.37,-0.000469611